time,position_x,position_y,position_z,velocity_x,velocity_y,velocity_z,acceleration_x,acceleration_y,acceleration_z,net_force_x,net_force_y,net_force_z,drone_mode,velocity_magnitude
0.02,0.0,0.0,0.0020759999999999997,0.0,0.0,0.10379999999999999,0.0,0.0,5.1899999999999995,0.0,0.0,5.1899999999999995,takeoff,0.10379999999999999
0.04,0.0,0.0,0.006227569022399999,0.0,0.0,0.20757845111999998,0.0,0.0,5.188922556,0.0,0.0,5.188922556,takeoff,0.20757845111999998
0.06,0.0,0.0,0.012453414492265225,0.0,0.0,0.3112922734932612,0.0,0.0,5.185691118663062,0.0,0.0,5.185691118663062,takeoff,0.3112922734932612
0.08,0.0,0.0,0.020751383846948985,0.0,0.0,0.41489846773418804,0.0,0.0,5.1803097120463395,0.0,0.0,5.1803097120463395,takeoff,0.41489846773418804
0.1,0.0,0.0,0.03111846757209162,0.0,0.0,0.5183541862571317,0.0,0.0,5.172785926147181,0.0,0.0,5.172785926147181,takeoff,0.5183541862571317
0.12000000000000001,0.0,0.0,0.043550803654737846,0.0,0.0,0.6216168041323111,0.0,0.0,5.163130893758971,0.0,0.0,5.163130893758971,takeoff,0.6216168041323111
0.14,0.0,0.0,0.058043683439336885,0.0,0.0,0.7246439892299518,0.0,0.0,5.151359254882033,0.0,0.0,5.151359254882033,takeoff,0.7246439892299518
0.16,0.0,0.0,0.07459155886749083,0.0,0.0,0.8273937714076975,0.0,0.0,5.13748910888729,0.0,0.0,5.13748910888729,takeoff,0.8273937714076975
0.18,0.0,0.0,0.09318805107752622,0.0,0.0,0.929824610501769,0.0,0.0,5.1215419547035745,0.0,0.0,5.1215419547035745,takeoff,0.929824610501769
0.19999999999999998,0.0,0.0,0.11382596033530981,0.0,0.0,1.0318954628891794,0.0,0.0,5.103542619370523,0.0,0.0,5.103542619370523,takeoff,1.0318954628891794
0.21999999999999997,0.0,0.0,0.13649727726324015,0.0,0.0,1.1335658463965168,0.0,0.0,5.083519175366872,0.0,0.0,5.083519175366872,takeoff,1.1335658463965168
0.23999999999999996,0.0,0.0,0.16119319533004584,0.0,0.0,1.2347959033402836,0.0,0.0,5.0615028471883345,0.0,0.0,5.0615028471883345,takeoff,1.2347959033402836
0.25999999999999995,0.0,0.0,0.18790412455993527,0.0,0.0,1.3355464614944716,0.0,0.0,5.037527907709404,0.0,0.0,5.037527907709404,takeoff,1.3355464614944716
0.27999999999999997,0.0,0.0,0.21661970641579228,0.0,0.0,1.4357790927928509,0.0,0.0,5.011631564918959,0.0,0.0,5.011631564918959,takeoff,1.4357790927928509
0.3,0.0,0.0,0.24732882980751725,0.0,0.0,1.5354561695862488,0.0,0.0,4.9838538396698935,0.0,0.0,4.9838538396698935,takeoff,1.5354561695862488
0.32,0.0,0.0,0.2800196481732934,0.0,0.0,1.6345409182888078,0.0,0.0,4.954237435127952,0.0,0.0,4.954237435127952,takeoff,1.6345409182888078
0.34,0.0,0.0,0.31467959757852715,0.0,0.0,1.7329974702616868,0.0,0.0,4.922827598643957,0.0,0.0,4.922827598643957,takeoff,1.7329974702616868
0.36000000000000004,0.0,0.0,0.35129541577448353,0.0,0.0,1.83079090979782,0.0,0.0,4.8896719768066585,0.0,0.0,4.8896719768066585,takeoff,1.83079090979782
0.38000000000000006,0.0,0.0,0.389853162156224,0.0,0.0,1.9278873190870234,0.0,0.0,4.8548204644601665,0.0,0.0,4.8548204644601665,takeoff,1.9278873190870234
0.4000000000000001,0.0,0.0,0.43033823855736064,0.0,0.0,2.0242538200568303,0.0,0.0,4.818325048490345,0.0,0.0,4.818325048490345,takeoff,2.0242538200568303
0.4200000000000001,0.0,0.0,0.4727354108173767,0.0,0.0,2.119858613000801,0.0,0.0,4.780239647198533,0.0,0.0,4.780239647198533,takeoff,2.119858613000801
0.4400000000000001,0.0,0.0,0.5170288310558282,0.0,0.0,2.2146710119225737,0.0,0.0,4.740619946088631,0.0,0.0,4.740619946088631,takeoff,2.2146710119225737
0.46000000000000013,0.0,0.0,0.5632020605866377,0.0,0.0,2.308661476540473,0.0,0.0,4.699523230894984,0.0,0.0,4.699523230894984,takeoff,2.308661476540473
0.48000000000000015,0.0,0.0,0.6112380934049166,0.0,0.0,2.401801640913949,0.0,0.0,4.657008218673796,0.0,0.0,4.657008218673796,takeoff,2.401801640913949
0.5000000000000001,0.0,0.0,0.6611193801783037,0.0,0.0,2.494064338669355,0.0,0.0,4.613134887770306,0.0,0.0,4.613134887770306,takeoff,2.494064338669355
0.5200000000000001,0.0,0.0,0.712827852674674,0.0,0.0,2.5854236248185107,0.0,0.0,4.567964307457778,0.0,0.0,4.567964307457778,takeoff,2.5854236248185107
0.5400000000000001,0.0,0.0,0.7663449485582534,0.0,0.0,2.675854794178971,0.0,0.0,4.521558468023031,0.0,0.0,4.521558468023031,takeoff,2.675854794178971
0.5600000000000002,0.0,0.0,0.8216516364866516,0.0,0.0,2.76533439641991,0.0,0.0,4.473980112046941,0.0,0.0,4.473980112046941,takeoff,2.76533439641991
0.5800000000000002,0.0,0.0,0.878728441442089,0.0,0.0,2.853840247771864,0.0,0.0,4.425292567597693,0.0,0.0,4.425292567597693,takeoff,2.853840247771864
0.6000000000000002,0.0,0.0,0.9375554702311342,0.0,0.0,2.9413514394522586,0.0,0.0,4.375559584019742,0.0,0.0,4.375559584019742,takeoff,2.9413514394522586
0.6200000000000002,0.0,0.0,0.9981124370885647,0.0,0.0,3.027848342871523,0.0,0.0,4.324845170963212,0.0,0.0,4.324845170963212,takeoff,3.027848342871523
0.6400000000000002,0.0,0.0,1.060378689322498,0.0,0.0,3.113312611696663,0.0,0.0,4.273213441257017,0.0,0.0,4.273213441257017,takeoff,3.113312611696663
0.6600000000000003,0.0,0.0,1.1243332329397053,0.0,0.0,3.197727180860364,0.0,0.0,4.220728458185049,0.0,0.0,4.220728458185049,takeoff,3.197727180860364
0.6800000000000003,0.0,0.0,1.189954758191984,0.0,0.0,3.281076262613938,0.0,0.0,4.167454087678682,0.0,0.0,4.167454087678682,takeoff,3.281076262613938
0.7000000000000003,0.0,0.0,1.2572216649866192,0.0,0.0,3.3633453397317603,0.0,0.0,4.113453855891135,0.0,0.0,4.113453855891135,takeoff,3.3633453397317603
0.7200000000000003,0.0,0.0,1.3261120881062827,0.0,0.0,3.4445211559831694,0.0,0.0,4.058790812570464,0.0,0.0,4.058790812570464,takeoff,3.4445211559831694
0.7400000000000003,0.0,0.0,1.3966039221861855,0.0,0.0,3.524591703995138,0.0,0.0,4.003527400598436,0.0,0.0,4.003527400598436,takeoff,3.524591703995138
0.7600000000000003,0.0,0.0,1.4686748463988935,0.0,0.0,3.6035462106353955,0.0,0.0,3.9477253320128645,0.0,0.0,3.9477253320128645,takeoff,3.6035462106353955
0.7800000000000004,0.0,0.0,1.542302348799914,0.0,0.0,3.681375120051026,0.0,0.0,3.8914454707815276,0.0,0.0,3.8914454707815276,takeoff,3.681375120051026
0.8000000000000004,0.0,0.0,1.6174637502899532,0.0,0.0,3.7580700745019646,0.0,0.0,3.8347477225469286,0.0,0.0,3.8347477225469286,takeoff,3.7580700745019646
0.8200000000000004,0.0,0.0,1.6941362281525978,0.0,0.0,3.83362389313223,0.0,0.0,3.7776909315132796,0.0,0.0,3.7776909315132796,takeoff,3.83362389313223
0.8400000000000004,0.0,0.0,1.7722968391290825,0.0,0.0,3.9080305488242417,0.0,0.0,3.7203327846005676,0.0,0.0,3.7203327846005676,takeoff,3.9080305488242417
0.8600000000000004,0.0,0.0,1.8519225419947456,0.0,0.0,3.981285143283155,0.0,0.0,3.662729722945649,0.0,0.0,3.662729722945649,takeoff,3.981285143283155
0.8800000000000004,0.0,0.0,1.9329902196047235,0.0,0.0,4.053383880498901,0.0,0.0,3.6049368607872823,0.0,0.0,3.6049368607872823,takeoff,4.053383880498901
0.9000000000000005,0.0,0.0,2.015476700379394,0.0,0.0,4.124324038733524,0.0,0.0,3.547007911731167,0.0,0.0,3.547007911731167,takeoff,4.124324038733524
0.9200000000000005,0.0,0.0,2.0993587792030057,0.0,0.0,4.194103941180574,0.0,0.0,3.4889951223524793,0.0,0.0,3.4889951223524793,takeoff,4.194103941180574
0.9400000000000005,0.0,0.0,2.18461323771184,0.0,0.0,4.262722925441721,0.0,0.0,3.4309492130573576,0.0,0.0,3.4309492130573576,takeoff,4.262722925441721
0.9600000000000005,0.0,0.0,2.271216863951111,0.0,0.0,4.330181311963548,0.0,0.0,3.372919326091357,0.0,0.0,3.372919326091357,takeoff,4.330181311963548
0.9800000000000005,0.0,0.0,2.3591464713826027,0.0,0.0,4.396480371574591,0.0,0.0,3.3149529805521643,0.0,0.0,3.3149529805521643,takeoff,4.396480371574591
1.0000000000000004,0.0,0.0,2.4483789172277888,0.0,0.0,4.461622292259309,0.0,0.0,3.257096034235934,0.0,0.0,3.257096034235934,takeoff,4.461622292259309
1.0200000000000005,0.0,0.0,2.5388911201338233,0.0,0.0,4.525610145301739,0.0,0.0,3.199392652121478,0.0,0.0,3.199392652121478,takeoff,4.525610145301739
1.0400000000000005,0.0,0.0,2.630660077152368,0.0,0.0,4.588447850927223,0.0,0.0,3.1418852812741966,0.0,0.0,3.1418852812741966,takeoff,4.588447850927223
1.0600000000000005,0.0,0.0,2.723662880023685,0.0,0.0,4.650140143565866,0.0,0.0,3.084614631932134,0.0,0.0,3.084614631932134,takeoff,4.650140143565866
1.0800000000000005,0.0,0.0,2.81787673076081,0.0,0.0,4.710692536856261,0.0,0.0,3.027619664519722,0.0,0.0,3.027619664519722,takeoff,4.710692536856261
1.1000000000000005,0.0,0.0,2.9132789565308634,0.0,0.0,4.770111288502674,0.0,0.0,2.9709375823206723,0.0,0.0,2.9709375823206723,takeoff,4.770111288502674
1.1200000000000006,0.0,0.0,3.009847023832729,0.0,0.0,4.828403365093273,0.0,0.0,2.9146038295299355,0.0,0.0,2.9146038295299355,takeoff,4.828403365093273
1.1400000000000006,0.0,0.0,3.1075585519723523,0.0,0.0,4.885576406981184,0.0,0.0,2.8586520943955955,0.0,0.0,2.8586520943955955,takeoff,4.885576406981184
1.1600000000000006,0.0,0.0,3.206391325838838,0.0,0.0,4.941638693324282,0.0,0.0,2.8031143171548814,0.0,0.0,2.8031143171548814,takeoff,4.941638693324282
1.1800000000000006,0.0,0.0,3.3063233079863092,0.0,0.0,4.996599107373562,0.0,0.0,2.748020702464028,0.0,0.0,2.748020702464028,takeoff,4.996599107373562
1.2000000000000006,0.0,0.0,3.4073326500281884,0.0,0.0,5.05046710209395,0.0,0.0,2.6933997360193715,0.0,0.0,2.6933997360193715,takeoff,5.05046710209395
1.2200000000000006,0.0,0.0,3.5093977033520942,0.0,0.0,5.103252666195283,0.0,0.0,2.639278205066674,0.0,0.0,2.639278205066674,takeoff,5.103252666195283
1.2400000000000007,0.0,0.0,3.6124970291649987,0.0,0.0,5.154966290645225,0.0,0.0,2.5856812224970724,0.0,0.0,2.5856812224970724,takeoff,5.154966290645225
1.2600000000000007,0.0,0.0,3.7166094078795955,0.0,0.0,5.205618935729848,0.0,0.0,2.53263225423114,0.0,0.0,2.53263225423114,takeoff,5.205618935729848
1.2800000000000007,0.0,0.0,3.8217138478540313,0.0,0.0,5.255221998721789,0.0,0.0,2.480153149597084,0.0,0.0,2.480153149597084,takeoff,5.255221998721789
1.3000000000000007,0.0,0.0,3.927789593498233,0.0,0.0,5.303787282210091,0.0,0.0,2.4282641744150553,0.0,0.0,2.4282641744150553,takeoff,5.303787282210091
1.3200000000000007,0.0,0.0,4.034816132761037,0.0,0.0,5.351326963140224,0.0,0.0,2.3769840465066494,0.0,0.0,2.3769840465066494,takeoff,5.351326963140224
1.3400000000000007,0.0,0.0,4.142773204013184,0.0,0.0,5.39785356260736,0.0,0.0,2.3263299733568426,0.0,0.0,2.3263299733568426,takeoff,5.39785356260736
1.3600000000000008,0.0,0.0,4.251640802341997,0.0,0.0,5.443379916440654,0.0,0.0,2.276317691664702,0.0,0.0,2.276317691664702,takeoff,5.443379916440654
1.3800000000000008,0.0,0.0,4.361399185274222,0.0,0.0,5.487919146611235,0.0,0.0,2.226961508529053,0.0,0.0,2.226961508529053,takeoff,5.487919146611235
1.4000000000000008,0.0,0.0,4.472028877944057,0.0,0.0,5.5314846334917505,0.0,0.0,2.178274344025781,0.0,0.0,2.178274344025781,takeoff,5.5314846334917505
1.4200000000000008,0.0,0.0,4.583510677723869,0.0,0.0,5.5740899889906395,0.0,0.0,2.1302677749444627,0.0,0.0,2.1302677749444627,takeoff,5.5740899889906395
1.4400000000000008,0.0,0.0,4.695825658335467,0.0,0.0,5.6157490305799085,0.0,0.0,2.082952079463433,0.0,0.0,2.082952079463433,takeoff,5.6157490305799085
1.4600000000000009,0.0,0.0,4.808955173460087,0.0,0.0,5.65647575623099,0.0,0.0,2.0363362825540814,0.0,0.0,2.0363362825540814,takeoff,5.65647575623099
1.4800000000000009,0.0,0.0,4.922880859865474,0.0,0.0,5.696284320269332,0.0,0.0,1.990428201917104,0.0,0.0,1.990428201917104,takeoff,5.696284320269332
1.5000000000000009,0.0,0.0,5.037584640068567,0.0,0.0,5.73518901015464,0.0,0.0,1.9452344942653745,0.0,0.0,1.9452344942653745,takeoff,5.73518901015464
1.520000000000001,0.0,0.0,5.153048724552372,0.0,0.0,5.773204224190243,0.0,0.0,1.9007607017801438,0.0,0.0,1.9007607017801438,takeoff,5.773204224190243
1.540000000000001,0.0,0.0,5.269255613555608,0.0,0.0,5.810344450161827,0.0,0.0,1.8570112985791924,0.0,0.0,1.8570112985791924,takeoff,5.810344450161827
1.560000000000001,0.0,0.0,5.386188098453664,0.0,0.0,5.846624244902774,0.0,0.0,1.8139897370473652,0.0,0.0,1.8139897370473652,takeoff,5.846624244902774
1.580000000000001,0.0,0.0,5.503829262749275,0.0,0.0,5.882058214780604,0.0,0.0,1.7716984938915066,0.0,0.0,1.7716984938915066,takeoff,5.882058214780604
1.600000000000001,0.0,0.0,5.622162482691205,0.0,0.0,5.916660997096468,0.0,0.0,1.7301391157932007,0.0,0.0,1.7301391157932007,takeoff,5.916660997096468
1.620000000000001,0.0,0.0,5.741171427538951,0.0,0.0,5.950447242387343,0.0,0.0,1.6893122645437426,0.0,0.0,1.6893122645437426,takeoff,5.950447242387343
1.640000000000001,0.0,0.0,5.860840059491321,0.0,0.0,5.983431597618472,0.0,0.0,1.649217761556486,0.0,0.0,1.649217761556486,takeoff,5.983431597618472
1.660000000000001,0.0,0.0,5.981152633296355,0.0,0.0,6.015628690251714,0.0,0.0,1.6098546316620848,0.0,0.0,1.6098546316620848,takeoff,6.015628690251714
1.680000000000001,0.0,0.0,6.10209369555983,0.0,0.0,6.047053113173755,0.0,0.0,1.5712211461020442,0.0,0.0,1.5712211461020442,takeoff,6.047053113173755
1.700000000000001,0.0,0.0,6.223648083769164,0.0,0.0,6.077719410466666,0.0,0.0,1.5333148646455594,0.0,0.0,1.5333148646455594,takeoff,6.077719410466666
1.720000000000001,0.0,0.0,6.345800925049202,0.0,0.0,6.107642064001939,0.0,0.0,1.4961326767636711,0.0,0.0,1.4961326767636711,takeoff,6.107642064001939
1.740000000000001,0.0,0.0,6.468537634665962,0.0,0.0,6.136835480838007,0.0,0.0,1.4596708418034128,0.0,0.0,1.4596708418034128,takeoff,6.136835480838007
1.7600000000000011,0.0,0.0,6.5918439142939675,0.0,0.0,6.165313981400263,0.0,0.0,1.4239250281127735,0.0,0.0,1.4239250281127735,takeoff,6.165313981400263
1.7800000000000011,0.0,0.0,6.715705750062403,0.0,0.0,6.193091788421763,0.0,0.0,1.3888903510750432,0.0,0.0,1.3888903510750432,takeoff,6.193091788421763
1.8000000000000012,0.0,0.0,6.840109410394846,0.0,0.0,6.220183016622129,0.0,0.0,1.3545614100182917,0.0,0.0,1.3545614100182917,takeoff,6.220183016622129
1.8200000000000012,0.0,0.0,6.965041443656878,0.0,0.0,6.24660166310158,0.0,0.0,1.320932323972562,0.0,0.0,1.320932323972562,takeoff,6.24660166310158
1.8400000000000012,0.0,0.0,7.09048867562541,0.0,0.0,6.272361598426653,0.0,0.0,1.2879967662536567,0.0,0.0,1.2879967662536567,takeoff,6.272361598426653
1.8600000000000012,0.0,0.0,7.216438206793087,0.0,0.0,6.297476558383819,0.0,0.0,1.2557479978582635,0.0,0.0,1.2557479978582635,takeoff,6.297476558383819
1.8800000000000012,0.0,0.0,7.342877409520628,0.0,0.0,6.321960136377031,0.0,0.0,1.2241788996606289,0.0,0.0,1.2241788996606289,takeoff,6.321960136377031
1.9000000000000012,0.0,0.0,7.46979392504953,0.0,0.0,6.3458257764451504,0.0,0.0,1.1932820034059701,0.0,0.0,1.1932820034059701,takeoff,6.3458257764451504
1.9200000000000013,0.0,0.0,7.597175660387034,0.0,0.0,6.369086766875159,0.0,0.0,1.1630495215004295,0.0,0.0,1.1630495215004295,takeoff,6.369086766875159
1.9400000000000013,0.0,0.0,7.725010785074778,0.0,0.0,6.3917562343871905,0.0,0.0,1.1334733756015725,0.0,0.0,1.1334733756015725,takeoff,6.3917562343871905
1.9600000000000013,0.0,0.0,7.853287727852129,0.0,0.0,6.413847138867536,0.0,0.0,1.1045452240172473,0.0,0.0,1.1045452240172473,takeoff,6.413847138867536
1.9800000000000013,0.0,0.0,7.981995173224649,0.0,0.0,6.4353722686260175,0.0,0.0,1.0762564879240717,0.0,0.0,1.0762564879240717,takeoff,6.4353722686260175
2.0000000000000013,0.0,0.0,8.111122057947737,0.0,0.0,6.456344236154416,0.0,0.0,1.0485983764199212,0.0,0.0,1.0485983764199212,takeoff,6.456344236154416
2.0200000000000014,0.0,0.0,8.225618685504381,0.0,0.0,5.724831377832158,0.0,0.0,-36.57564291611289,0.0,0.0,-36.57564291611289,hover,5.724831377832158
2.0400000000000014,0.0,0.0,8.32677400405783,0.0,0.0,5.057765927672418,0.0,0.0,-33.353272507987,0.0,0.0,-33.353272507987,hover,5.057765927672418
2.0600000000000014,0.0,0.0,8.415728688908484,0.0,0.0,4.447734242532697,0.0,0.0,-30.50158425698605,0.0,0.0,-30.50158425698605,hover,4.447734242532697
2.0800000000000014,0.0,0.0,8.493497566919135,0.0,0.0,3.8884439005325824,0.0,0.0,-27.964517100005725,0.0,0.0,-27.964517100005725,hover,3.8884439005325824
2.1000000000000014,0.0,0.0,8.560987923223161,0.0,0.0,3.3745178152012674,0.0,0.0,-25.69630426656574,0.0,0.0,-25.69630426656574,hover,3.3745178152012674
2.1200000000000014,0.0,0.0,8.619014567074279,0.0,0.0,2.90133219255594,0.0,0.0,-23.659281132266358,0.0,0.0,-23.659281132266358,hover,2.90133219255594
2.1400000000000015,0.0,0.0,8.668312322708855,0.0,0.0,2.46488778172884,0.0,0.0,-21.82222054135502,0.0,0.0,-21.82222054135502,hover,2.46488778172884
2.1600000000000015,0.0,0.0,8.709546456366143,0.0,0.0,2.061706682864344,0.0,0.0,-20.159054943224792,0.0,0.0,-20.159054943224792,hover,2.061706682864344
2.1800000000000015,0.0,0.0,8.743321435770838,0.0,0.0,1.6887489702347689,0.0,0.0,-18.64788563147877,0.0,0.0,-18.64788563147877,hover,1.6887489702347689
2.2000000000000015,0.0,0.0,8.770188332191568,0.0,0.0,1.3433448210364731,0.0,0.0,-17.270207459914793,0.0,0.0,-17.270207459914793,hover,1.3433448210364731
2.2200000000000015,0.0,0.0,8.790651109831122,0.0,0.0,1.0231388819777558,0.0,0.0,-16.010296952935867,0.0,0.0,-16.010296952935867,hover,1.0231388819777558
2.2400000000000015,0.0,0.0,8.805171997267529,0.0,0.0,0.7260443718203481,0.0,0.0,-14.854725507870386,0.0,0.0,-14.854725507870386,hover,0.7260443718203481
2.2600000000000016,0.0,0.0,8.814176097014737,0.0,0.0,0.450204987360428,0.0,0.0,-13.791969222996002,0.0,0.0,-13.791969222996002,hover,0.450204987360428
2.2800000000000016,0.0,0.0,8.818055359167161,0.0,0.0,0.19396310762122965,0.0,0.0,-12.812093986959917,0.0,0.0,-12.812093986959917,hover,0.19396310762122965
2.3000000000000016,0.0,0.0,8.817172021460456,0.0,0.0,-0.04416688533526961,0.0,0.0,-11.906499647824962,0.0,0.0,-11.906499647824962,hover,0.04416688533526961
2.3200000000000016,0.0,0.0,8.81186175545096,0.0,0.0,-0.26551330047478905,0.0,0.0,-11.067320756975972,0.0,0.0,-11.067320756975972,hover,0.26551330047478905
2.3400000000000016,0.0,0.0,8.802441436196636,0.0,0.0,-0.4710159627162247,0.0,0.0,-10.275133112071783,0.0,0.0,-10.275133112071783,hover,0.4710159627162247
2.3600000000000017,0.0,0.0,8.789212358029001,0.0,0.0,-0.661453908381778,0.0,0.0,-9.521897283277662,0.0,0.0,-9.521897283277662,hover,0.661453908381778
2.3800000000000017,0.0,0.0,8.772460343943951,0.0,0.0,-0.8376007042524771,0.0,0.0,-8.807339793534954,0.0,0.0,-8.807339793534954,hover,0.8376007042524771
2.4000000000000017,0.0,0.0,8.752455963213649,0.0,0.0,-1.0002190365151238,0.0,0.0,-8.130916613132335,0.0,0.0,-8.130916613132335,hover,1.0002190365151238
2.4200000000000017,0.0,0.0,8.729454839535094,0.0,0.0,-1.150056183927687,0.0,0.0,-7.491857370628166,0.0,0.0,-7.491857370628166,hover,1.150056183927687
2.4400000000000017,0.0,0.0,8.703698033457817,0.0,0.0,-1.2878403038638626,0.0,0.0,-6.889205996808778,0.0,0.0,-6.889205996808778,hover,1.2878403038638626
2.4600000000000017,0.0,0.0,8.67541248433147,0.0,0.0,-1.414277456317283,0.0,0.0,-6.321857622671025,0.0,0.0,-6.321857622671025,hover,1.414277456317283
2.4800000000000018,0.0,0.0,8.6448114985318,0.0,0.0,-1.530049289983528,0.0,0.0,-5.788591683312248,0.0,0.0,-5.788591683312248,hover,1.530049289983528
2.5000000000000018,0.0,0.0,8.61209527221883,0.0,0.0,-1.6358113156484855,0.0,0.0,-5.288101283247867,0.0,0.0,-5.288101283247867,hover,1.6358113156484855
2.520000000000002,0.0,0.0,8.577451438322768,0.0,0.0,-1.732191694803128,0.0,0.0,-4.819018957732125,0.0,0.0,-4.819018957732125,hover,1.732191694803128
2.540000000000002,0.0,0.0,8.541055628817832,0.0,0.0,-1.8197904752468204,0.0,0.0,-4.379939022184621,0.0,0.0,-4.379939022184621,hover,1.8197904752468204
2.560000000000002,0.0,0.0,8.503072044616497,0.0,0.0,-1.8991792100667486,0.0,0.0,-3.9694367409964135,0.0,0.0,-3.9694367409964135,hover,1.8991792100667486
2.580000000000002,0.0,0.0,8.463654026586799,0.0,0.0,-1.970900901484927,0.0,0.0,-3.5860845709089233,0.0,0.0,-3.5860845709089233,hover,1.970900901484927
2.600000000000002,0.0,0.0,8.422944622258807,0.0,0.0,-2.0354702163995966,0.0,0.0,-3.228465745733469,0.0,0.0,-3.228465745733469,hover,2.0354702163995966
2.620000000000002,0.0,0.0,8.3810771437424,0.0,0.0,-2.093373925820368,0.0,0.0,-2.895185471038571,0.0,0.0,-2.895185471038571,hover,2.093373925820368
2.640000000000002,0.0,0.0,8.338175713229239,0.0,0.0,-2.14507152565812,0.0,0.0,-2.5848799918875804,0.0,0.0,-2.5848799918875804,hover,2.14507152565812
2.660000000000002,0.0,0.0,8.294355793201781,0.0,0.0,-2.190996001372933,0.0,0.0,-2.2962237857406587,0.0,0.0,-2.2962237857406587,hover,2.190996001372933
2.680000000000002,0.0,0.0,8.249724699127162,0.0,0.0,-2.231554703730925,0.0,0.0,-2.027935117899605,0.0,0.0,-2.027935117899605,hover,2.231554703730925
2.700000000000002,0.0,0.0,8.204382092980653,0.0,0.0,-2.2671303073254503,0.0,0.0,-1.7787801797262504,0.0,0.0,-1.7787801797262504,hover,2.2671303073254503
2.720000000000002,0.0,0.0,8.158420456429589,0.0,0.0,-2.2980818275531982,0.0,0.0,-1.5475760113873975,0.0,0.0,-1.5475760113873975,hover,2.2980818275531982
2.740000000000002,0.0,0.0,8.111925542921758,0.0,0.0,-2.324745675391488,0.0,0.0,-1.3331923919144846,0.0,0.0,-1.3331923919144846,hover,2.324745675391488
2.760000000000002,0.0,0.0,8.064976808269707,0.0,0.0,-2.347436732602542,0.0,0.0,-1.1345528605526911,0.0,0.0,-1.1345528605526911,hover,2.347436732602542
2.780000000000002,0.0,0.0,8.017647819611584,0.0,0.0,-2.366449432906099,0.0,0.0,-0.9506350151778739,0.0,0.0,-0.9506350151778739,hover,2.366449432906099
2.800000000000002,0.0,0.0,7.97000664286694,0.0,0.0,-2.382058837232223,0.0,0.0,-0.7804702163061865,0.0,0.0,-0.7804702163061865,hover,2.382058837232223
2.820000000000002,0.0,0.0,7.922116208998647,0.0,0.0,-2.394521693414663,0.0,0.0,-0.6231428091220121,0.0,0.0,-0.6231428091220121,hover,2.394521693414663
2.840000000000002,0.0,0.0,7.874034659545902,0.0,0.0,-2.4040774726372063,0.0,0.0,-0.4777889611271562,0.0,0.0,-0.4777889611271562,hover,2.4040774726372063
2.860000000000002,0.0,0.0,7.825815672013349,0.0,0.0,-2.410949376627645,0.0,0.0,-0.3435951995219383,0.0,0.0,-0.3435951995219383,hover,2.410949376627645
2.880000000000002,0.0,0.0,7.777508765792689,0.0,0.0,-2.415345311033012,0.0,0.0,-0.21979672026834396,0.0,0.0,-0.21979672026834396,hover,2.415345311033012
2.900000000000002,0.0,0.0,7.72915958936006,0.0,0.0,-2.417458821631441,0.0,0.0,-0.10567552992144524,0.0,0.0,-0.10567552992144524,hover,2.417458821631441
2.920000000000002,0.0,0.0,7.680810189538757,0.0,0.0,-2.4174699910651656,0.0,0.0,-0.0005584716862363504,0.0,0.0,-0.0005584716862363504,hover,2.4174699910651656
2.940000000000002,0.0,0.0,7.632499263645981,0.0,0.0,-2.4155462946388435,0.0,0.0,0.09618482131610051,0.0,0.0,0.09618482131610051,hover,2.4155462946388435
2.960000000000002,0.0,0.0,7.584262395357201,0.0,0.0,-2.4118434144389673,0.0,0.0,0.1851440099938092,0.0,0.0,0.1851440099938092,hover,2.4118434144389673
2.980000000000002,0.0,0.0,7.53613227512494,0.0,0.0,-2.406506011613073,0.0,0.0,0.26687014129471986,0.0,0.0,0.26687014129471986,hover,2.406506011613073
3.000000000000002,0.0,0.0,7.488138905982552,0.0,0.0,-2.3996684571193865,0.0,0.0,0.3418777246843361,0.0,0.0,0.3418777246843361,hover,2.3996684571193865
3.0200000000000022,0.0,0.0,7.440309795549868,0.0,0.0,-2.3914555216342346,0.0,0.0,0.410646774257596,0.0,0.0,0.410646774257596,hover,2.3914555216342346
3.0400000000000023,0.0,0.0,7.392670135037868,0.0,0.0,-2.3819830256000136,0.0,0.0,0.47362480171104604,0.0,0.0,0.47362480171104604,hover,2.3819830256000136
3.0600000000000023,0.0,0.0,7.345242966025405,0.0,0.0,-2.371358450623125,0.0,0.0,0.531228748844445,0.0,0.0,0.531228748844445,hover,2.371358450623125
3.0800000000000023,0.0,0.0,7.298049335753407,0.0,0.0,-2.3596815135999294,0.0,0.0,0.583846851159772,0.0,0.0,0.583846851159772,hover,2.3596815135999294
3.1000000000000023,0.0,0.0,7.251108441652029,0.0,0.0,-2.3470447050689107,0.0,0.0,0.6318404265509373,0.0,0.0,0.6318404265509373,hover,2.3470447050689107
3.1200000000000023,0.0,0.0,7.204437765784688,0.0,0.0,-2.333533793367075,0.0,0.0,0.6755455850918046,0.0,0.0,0.6755455850918046,hover,2.333533793367075
3.1400000000000023,0.0,0.0,7.158053199860382,0.0,0.0,-2.3192282962152855,0.0,0.0,0.7152748575894736,0.0,0.0,0.7152748575894736,hover,2.3192282962152855
3.1600000000000024,0.0,0.0,7.111969161432847,0.0,0.0,-2.30420192137679,0.0,0.0,0.751318741924774,0.0,0.0,0.751318741924774,hover,2.30420192137679
3.1800000000000024,0.0,0.0,7.06619870187223,0.0,0.0,-2.288522978030866,0.0,0.0,0.7839471672961935,0.0,0.0,0.7839471672961935,hover,2.288522978030866
3.2000000000000024,0.0,0.0,7.020753606662555,0.0,0.0,-2.2722547604837344,0.0,0.0,0.8134108773565724,0.0,0.0,0.8134108773565724,hover,2.2722547604837344
3.2200000000000024,0.0,0.0,6.975644488546447,0.0,0.0,-2.2554559058053836,0.0,0.0,0.8399427339175347,0.0,0.0,0.8399427339175347,hover,2.2554559058053836
3.2400000000000024,0.0,0.0,6.930880874007709,0.0,0.0,-2.2381807269368905,0.0,0.0,0.863758943424661,0.0,0.0,0.863758943424661,hover,2.2381807269368905
3.2600000000000025,0.0,0.0,6.886471283552492,0.0,0.0,-2.2204795227608436,0.0,0.0,0.8850602088023464,0.0,0.0,0.8850602088023464,hover,2.2204795227608436
3.2800000000000025,0.0,0.0,6.842423306221097,0.0,0.0,-2.2023988665697742,0.0,0.0,0.9040328095534651,0.0,0.0,0.9040328095534651,hover,2.2023988665697742
3.3000000000000025,0.0,0.0,6.7987436687349785,0.0,0.0,-2.1839818743058887,0.0,0.0,0.920849613194272,0.0,0.0,0.920849613194272,hover,2.1839818743058887
3.3200000000000025,0.0,0.0,6.755438299657351,0.0,0.0,-2.1652684538813727,0.0,0.0,0.9356710212257937,0.0,0.0,0.9356710212257937,hover,2.1652684538813727
3.3400000000000025,0.0,0.0,6.712512388920885,0.0,0.0,-2.1462955368233136,0.0,0.0,0.948645852902958,0.0,0.0,0.948645852902958,hover,2.1462955368233136
3.3600000000000025,0.0,0.0,6.669970443052448,0.0,0.0,-2.127097293421832,0.0,0.0,0.9599121700740694,0.0,0.0,0.9599121700740694,hover,2.127097293421832
3.3800000000000026,0.0,0.0,6.627816336402546,0.0,0.0,-2.1077053324951276,0.0,0.0,0.9695980463352378,0.0,0.0,0.9695980463352378,hover,2.1077053324951276
3.4000000000000026,0.0,0.0,6.586053358666118,0.0,0.0,-2.088148886821404,0.0,0.0,0.9778222836861674,0.0,0.0,0.9778222836861674,hover,2.088148886821404
3.4200000000000026,0.0,0.0,6.544684258961606,0.0,0.0,-2.068454985225574,0.0,0.0,0.9846950797915,0.0,0.0,0.9846950797915,hover,2.068454985225574
3.4400000000000026,0.0,0.0,6.503711286716635,0.0,0.0,-2.0486486122485297,0.0,0.0,0.9903186488522233,0.0,0.0,0.9903186488522233,hover,2.0486486122485297
3.4600000000000026,0.0,0.0,6.463136229591257,0.0,0.0,-2.028752856268953,0.0,0.0,0.9947877989788392,0.0,0.0,0.9947877989788392,hover,2.028752856268953
3.4800000000000026,0.0,0.0,6.422960448653412,0.0,0.0,-2.008789046892228,0.0,0.0,0.9981904688362384,0.0,0.0,0.9981904688362384,hover,2.008789046892228
3.5000000000000027,0.0,0.0,6.383184911006048,0.0,0.0,-1.9887768823681706,0.0,0.0,1.0006082262028664,0.0,0.0,1.0006082262028664,hover,1.9887768823681706
3.5200000000000027,0.0,0.0,6.3438102200510675,0.0,0.0,-1.968734547749047,0.0,0.0,1.0021167309561803,0.0,0.0,1.0021167309561803,hover,1.968734547749047
3.5400000000000027,0.0,0.0,6.304836643562033,0.0,0.0,-1.9486788244517457,0.0,0.0,1.0027861648650676,0.0,0.0,1.0027861648650676,hover,1.9486788244517457
3.5600000000000027,0.0,0.0,6.266264139725173,0.0,0.0,-1.928625191842962,0.0,0.0,1.0026816304391812,0.0,0.0,1.0026816304391812,hover,1.928625191842962
3.5800000000000027,0.0,0.0,6.228092381296697,0.0,0.0,-1.9085879214238295,0.0,0.0,1.0018635209566258,0.0,0.0,1.0018635209566258,hover,1.9085879214238295
3.6000000000000028,0.0,0.0,6.190320778013686,0.0,0.0,-1.88858016415051,0.0,0.0,1.0003878636659769,0.0,0.0,1.0003878636659769,hover,1.88858016415051
3.6200000000000028,0.0,0.0,6.152948497385891,0.0,0.0,-1.8686140313897668,0.0,0.0,0.9983066380371637,0.0,0.0,0.9983066380371637,hover,1.8686140313897668
3.640000000000003,0.0,0.0,6.115974483986423,0.0,0.0,-1.8487006699733959,0.0,0.0,0.9956680708185485,0.0,0.0,0.9956680708185485,hover,1.8487006699733959
3.660000000000003,0.0,0.0,6.079397477350773,0.0,0.0,-1.8288503317824854,0.0,0.0,0.9925169095455215,0.0,0.0,0.9925169095455215,hover,1.8288503317824854
3.680000000000003,0.0,0.0,6.043216028585539,0.0,0.0,-1.809072438261711,0.0,0.0,0.988894676038717,0.0,0.0,0.988894676038717,hover,1.809072438261711
3.700000000000003,0.0,0.0,6.007428515780837,0.0,0.0,-1.7893756402351468,0.0,0.0,0.9848399013282001,0.0,0.0,0.9848399013282001,hover,1.7893756402351468
3.720000000000003,0.0,0.0,5.972033158313471,0.0,0.0,-1.7697678733682767,0.0,0.0,0.9803883433435089,0.0,0.0,0.9803883433435089,hover,1.7697678733682767
3.740000000000003,0.0,0.0,5.937028030121553,0.0,0.0,-1.7502564095959137,0.0,0.0,0.9755731886181467,0.0,0.0,0.9755731886181467,hover,1.7502564095959137
3.760000000000003,0.0,0.0,5.902411072025303,0.0,0.0,-1.7308479048124892,0.0,0.0,0.9704252391712249,0.0,0.0,0.9704252391712249,hover,1.7308479048124892
3.780000000000003,0.0,0.0,5.868180103163312,0.0,0.0,-1.71154844309953,0.0,0.0,0.9649730856479588,0.0,0.0,0.9649730856479588,hover,1.71154844309953
3.800000000000003,0.0,0.0,5.834332831608411,0.0,0.0,-1.692363577745033,0.0,0.0,0.9592432677248466,0.0,0.0,0.9592432677248466,hover,1.692363577745033
3.820000000000003,0.0,0.0,5.800866864222597,0.0,0.0,-1.6732983692907517,0.0,0.0,0.9532604227140629,0.0,0.0,0.9532604227140629,hover,1.6732983692907517
3.840000000000003,0.0,0.0,5.767779715806076,0.0,0.0,-1.6543574208260512,0.0,0.0,0.9470474232350206,0.0,0.0,0.9470474232350206,hover,1.6543574208260512
3.860000000000003,0.0,0.0,5.735068817591459,0.0,0.0,-1.6355449107308766,0.0,0.0,0.9406255047587244,0.0,0.0,0.9406255047587244,hover,1.6355449107308766
3.880000000000003,0.0,0.0,5.70273152513035,0.0,0.0,-1.6168646230554287,0.0,0.0,0.9340143837723919,0.0,0.0,0.9340143837723919,hover,1.6168646230554287
3.900000000000003,0.0,0.0,5.670765125616144,0.0,0.0,-1.5983199757102768,0.0,0.0,0.9272323672575908,0.0,0.0,0.9272323672575908,hover,1.5983199757102768
3.920000000000003,0.0,0.0,5.639166844683588,0.0,0.0,-1.5799140466277848,0.0,0.0,0.9202964541246039,0.0,0.0,0.9202964541246039,hover,1.5799140466277848
3.940000000000003,0.0,0.0,5.607933852722712,0.0,0.0,-1.5616495980438103,0.0,0.0,0.9132224291987223,0.0,0.0,0.9132224291987223,hover,1.5616495980438103
3.960000000000003,0.0,0.0,5.57706327074196,0.0,0.0,-1.5435290990376018,0.0,0.0,0.9060249503104242,0.0,0.0,0.9060249503104242,hover,1.5435290990376018
3.980000000000003,0.0,0.0,5.546552175812809,0.0,0.0,-1.525554746457587,0.0,0.0,0.8987176290007416,0.0,0.0,0.8987176290007416,hover,1.525554746457587
4.000000000000003,0.0,0.0,5.516397606125783,0.0,0.0,-1.5077284843512802,0.0,0.0,0.8913131053153376,0.0,0.0,0.8913131053153376,hover,1.5077284843512802
4.020000000000002,0.0016,0.0016,5.488031668039249,0.08,0.08,-1.4182969043266733,4.0,4.0,4.471579001230336,4.0,4.0,4.471579001230336,navigate,1.4228022029862846
4.040000000000002,0.004682167032950444,0.004682167032950444,5.4613416385227405,0.15410835164752218,0.15410835164752218,-1.334501475825447,3.7054175823761097,3.7054175823761097,4.18977142506132,3.7054175823761097,3.7054175823761097,4.18977142506132,navigate,1.3521808152297268
4.060000000000001,0.009136501345705417,0.009136501345705417,5.436223017253309,0.2227167156377487,0.2227167156377487,-1.2559310634715615,3.430418199511326,3.430418199511326,3.9285206176942755,3.430418199511326,3.430418199511326,3.9285206176942755,navigate,1.2948236586662059
4.080000000000001,0.014860187900587452,0.014860187900587452,5.412578769429121,0.2861843277441017,0.2861843277441017,-1.182212391209411,3.1733806053176496,3.1733806053176496,3.685933613107525,3.1733806053176496,3.1733806053176496,3.685933613107525,navigate,1.2495715573034463
4.1000000000000005,0.021757023934463472,0.021757023934463472,5.390318646296233,0.344841801693801,0.344841801693801,-1.1130061566444232,2.9328736974849656,2.9328736974849656,3.460311728249393,2.9328736974849656,2.9328736974849656,3.460311728249393,navigate,1.2151602532667218
4.12,0.029736914304777273,0.029736914304777273,5.369358576099338,0.39899451851569,0.39899451851569,-1.048003509844772,2.70763584109445,2.70763584109445,3.25013233998256,2.70763584109445,2.70763584109445,3.25013233998256,navigate,1.1902540099735417
4.14,0.038715426624700455,0.038715426624700455,5.349620119570548,0.4489256159961591,0.4489256159961591,-0.9869228264394934,2.496554874023454,2.496554874023454,3.0540341702639333,2.496554874023454,2.496554874023454,3.0540341702639333,navigate,1.173492685423467
4.159999999999999,0.04861339830386242,0.04861339830386242,5.331029984771833,0.4948985839580985,0.4948985839580985,-0.9295067399357424,2.2986483980969705,2.2986483980969705,2.8708043251875504,2.2986483980969705,2.2986483980969705,2.8708043251875504,navigate,1.1635428640120802
4.179999999999999,0.059356587818209,0.059356587818209,5.313519596258583,0.5371594757173288,0.5371594757173288,-0.8755194256625071,2.1130445879615176,2.1130445879615176,2.6993657136617686,2.1130445879615176,2.1130445879615176,2.6993657136617686,navigate,1.159144024450041
4.199999999999998,0.07087536298843858,0.07087536298843858,5.297024713388676,0.5759387585114785,0.5759387585114785,-0.8247441434953816,1.9389641397074853,1.9389641397074853,2.5387641083562715,1.9389641397074853,1.9389641397074853,2.5387641083562715,navigate,1.159143567182865
4.219999999999998,0.08310441977808053,0.08310441977808053,5.281485092423691,0.6114528394820977,0.6114528394820977,-0.7769810482492431,1.7757040485309614,1.7757040485309614,2.3881547623069252,1.7757040485309614,1.7757040485309614,2.3881547623069252,navigate,1.1625182575598254
4.2399999999999975,0.09598252605304369,0.09598252605304369,5.26684418703849,0.6439053137481582,0.6439053137481582,-0.7320452692600082,1.6226237133030232,1.6226237133030232,2.2467889494617417,1.6226237133030232,1.6226237133030232,2.2467889494617417,navigate,1.168382806443242
4.259999999999997,0.10945228575201457,0.10945228575201457,5.253048882044869,0.6734879849485438,0.6734879849485438,-0.6897652496810642,1.4791335600192803,1.4791335600192803,2.1140009789471987,1.4791335600192803,1.4791335600192803,2.1140009789471987,navigate,1.1759881935664493
4.279999999999997,0.12345991988670355,0.12345991988670355,5.240049255526763,0.7003817067344484,0.7003817067344484,-0.6499813259052698,1.344686089295233,1.344686089295233,1.9891961887897205,1.344686089295233,1.344686089295233,1.9891961887897205,navigate,1.1847129586030916
4.299999999999996,0.13795506164469745,0.13795506164469745,5.2277983651124895,0.7247570878996952,0.7247570878996952,-0.6125445207136715,1.2187690582623387,1.2187690582623387,1.8718402595799173,1.2187690582623387,1.2187690582623387,1.8718402595799173,navigate,1.1940504439838522
4.319999999999996,0.15289056356941255,0.15289056356941255,5.216252054697402,0.7467750962357544,0.7467750962357544,-0.577315520754378,1.1009004168029646,1.1009004168029646,1.7614499979646758,1.1009004168029646,1.1009004168029646,1.7614499979646758,navigate,1.2035943250197465
4.339999999999995,0.16822231533782625,0.16822231533782625,5.205368778514994,0.7665875884206843,0.7665875884206843,-0.544163809120416,0.9906246092464914,0.9906246092464914,1.6575855816980987,0.9906246092464914,0.9906246092464914,1.6575855816980987,navigate,1.213024036281937
4.359999999999995,0.18390907106335394,0.18390907106335394,5.195109439993748,0.784337786276384,0.784337786276384,-0.512966926062311,0.887509892784983,0.887509892784983,1.5598441529052474,0.887509892784983,0.887509892784983,1.5598441529052474,navigate,1.2220910740185011
4.379999999999995,0.19991228534293903,0.19991228534293903,5.185437243309058,0.8001607139792554,0.8001607139792554,-0.4836098342344842,0.7911463851435684,0.7911463851435684,1.4678545913913381,0.7911463851435684,0.7911463851435684,1.4678545913913381,navigate,1.2306066829657187
4.399999999999994,0.21619595746979606,0.21619595746979606,5.176317555937407,0.8141836063428509,0.8141836063428509,-0.45598436858251884,0.701144618179779,0.701144618179779,1.3812732825982703,0.701144618179779,0.701144618179779,1.3812732825982703,navigate,1.2384311180144414
4.419999999999994,0.23272648336924237,0.23272648336924237,5.167717780846278,0.8265262949723151,0.8265262949723151,-0.4299887545564773,0.6171344314732092,0.6171344314732092,1.2997807013020777,0.6171344314732092,0.6171344314732092,1.2997807013020777,navigate,1.2454644762522757
4.439999999999993,0.24947251490346897,0.24947251490346897,5.15960723721561,0.8373015767113305,0.8373015767113305,-0.4055271815333989,0.5387640869507696,0.5387640869507696,1.2230786511539198,0.5387640869507696,0.5387640869507696,1.2230786511539198,navigate,1.251638987763238
4.459999999999993,0.26640482624645984,0.26640482624645984,5.151957048794556,0.8466155671495436,0.8466155671495436,-0.3825094210526755,0.4656995219106519,0.4656995219106519,1.1508880240361703,0.4656995219106519,0.4656995219106519,1.1508880240361703,navigate,1.2569126040715557
4.479999999999992,0.28349618706335805,0.28349618706335805,5.144740039160441,0.8545680408449102,0.8545680408449102,-0.36085048170577605,0.3976236847683328,0.3976236847683328,1.082946967344973,0.3976236847683328,0.3976236847683328,1.082946967344973,navigate,1.2612637087517848
4.499999999999992,0.3007212422471596,0.3007212422471596,5.13793063327406,0.8612527591900786,0.8612527591900786,-0.34047029431906717,0.3342359172584181,0.3342359172584181,1.0190093693354438,0.3342359172584181,0.3342359172584181,1.0190093693354438,navigate,1.2646867800917188
4.519999999999992,0.31805639797514274,0.31805639797514274,5.1315047648243155,0.8667577863991562,0.8667577863991562,-0.3212934224872164,0.2752513604538845,0.2752513604538845,0.9588435915925411,0.2752513604538845,0.2752513604538845,0.9588435915925411,navigate,1.267188850921866
4.539999999999991,0.33547971385165193,0.33547971385165193,5.125439788931907,0.8711657938254601,0.8711657938254601,-0.3032487946203832,0.22040037131519497,0.22040037131519497,0.9022313933416587,0.22040037131519497,0.22040037131519497,0.9022313933416587,navigate,1.26878662985618
4.559999999999991,0.3529708009052604,0.3529708009052604,5.1197143998414685,0.8745543526804243,0.8745543526804243,-0.28626945452196395,0.16942794274820688,0.16942794274820688,0.8489670049209607,0.16942794274820688,0.16942794274820688,0.8489670049209607,navigate,1.269504167845405
4.57999999999999,0.37051072520856265,0.37051072520856265,5.1143085532781125,0.8769962151651138,0.8769962151651138,-0.2702923281678003,0.12209312423448053,0.12209312423448053,0.7988563177081832,0.12209312423448053,0.12209312423448053,0.7988563177081832,navigate,1.26937097236948
4.59999999999999,0.38808191688893057,0.38808191688893057,5.109203393180986,0.8785595840183964,0.8785595840183964,-0.25525800485631805,0.07816844266412708,0.07816844266412708,0.751716165574113,0.07816844266412708,0.07816844266412708,0.751716165574113,navigate,1.268420488002454
4.6199999999999894,0.4056680842991096,0.4056680842991096,5.1043811825554375,0.8793083705089517,0.8793083705089517,-0.2411105312774425,0.03743932452776649,0.03743932452776649,0.707373678943778,0.03743932452776649,0.03743932452776649,0.707373678943778,navigate,1.2666888762387971
4.639999999999989,0.4232541331178685,0.4232541331178685,5.09982523820875,0.879302440937946,0.879302440937946,-0.22779721733441272,-0.00029647855028554215,-0.00029647855028554215,0.6656656971514898,-0.00029647855028554215,-0.00029647855028554215,0.6656656971514898,navigate,1.2642140394348425
4.659999999999989,0.4408260901531903,0.4408260901531903,5.0955198691533745,0.8785978517660888,0.8785978517660888,-0.2152684527687571,-0.0352294585928558,-0.0352294585928558,0.6264382282827798,-0.0352294585928558,-0.0352294585928558,0.6264382282827798,navigate,1.2610348436952197
4.679999999999988,0.4583710316237301,0.4583710316237301,5.0914503184773405,0.8772470735269894,0.8772470735269894,-0.20347753380169958,-0.0675389119549719,-0.0675389119549719,0.589545948352877,-0.0675389119549719,-0.0675389119549719,0.589545948352877,navigate,1.2571905037763194
4.699999999999988,0.475877015698421,0.475877015698421,5.087602708494776,0.8752992037345435,0.8752992037345435,-0.19238049912821958,-0.0973934896222929,-0.0973934896222929,0.5548517336740001,-0.0973934896222929,-0.0973934896222929,0.5548517336740001,navigate,1.2527200998473182
4.719999999999987,0.49333301907908883,0.49333301907908883,5.083963989000918,0.8728001690333914,0.8728001690333914,-0.18193597469288209,-0.1249517350576054,-0.1249517350576054,0.5222262217668745,-0.1249517350576054,-0.1249517350576054,0.5222262217668745,navigate,1.2476622014859962
4.739999999999987,0.5107288774166325,0.5107288774166325,5.080521888465978,0.8697929168771834,0.8697929168771834,-0.17210502674698744,-0.1503626078104025,-0.1503626078104025,0.49154739729473224,-0.1503626078104025,-0.1503626078104025,0.49154739729473224,navigate,1.2420545788052226
4.7599999999999865,0.5280552293576141,0.5280552293576141,5.077264868011172,0.866317597049076,0.866317597049076,-0.16285102274032445,-0.1737659914053726,-0.1737659914053726,0.46270020033314907,-0.1737659914053726,-0.1737659914053726,0.46270020033314907,navigate,1.235933984289347
4.779999999999986,0.5453034640248655,0.5453034640248655,5.074182078018328,0.8624117333625744,0.8624117333625744,-0.15413949964218654,-0.19529318432507775,-0.19529318432507775,0.4355761549068957,-0.19529318432507775,-0.19529318432507775,0.4355761549068957,navigate,1.2293359919211768
4.799999999999986,0.5624656717428423,0.5624656717428423,5.071263317231956,0.858110385898844,0.858110385898844,-0.1459380393185929,-0.2150673731865157,-0.2150673731865157,0.41007301617968195,-0.2150673731865157,-0.2150673731865157,0.41007301617968195,navigate,1.222294882626562
4.819999999999985,0.5795345978258301,0.5795345978258301,5.06849899421959,0.8534463041493855,0.8534463041493855,-0.13821615061829032,-0.23320408747292454,-0.23320408747292454,0.3860944350151292,-0.23320408747292454,-0.23320408747292454,0.3860944350151292,navigate,1.2148435670588327
4.839999999999985,0.5965035992546509,0.5965035992546509,5.065880091062772,0.8484500714410432,0.8484500714410432,-0.13094515784090904,-0.24981163541711077,-0.24981163541711077,0.3635496388690631,-0.24981163541711077,-0.24981163541711077,0.3635496388690631,navigate,1.2070135383741987
4.859999999999984,0.613366604075136,0.613366604075136,5.063398129157213,0.8431502410242564,0.8431502410242564,-0.12409809527795927,-0.26499152083934296,-0.26499152083934296,0.3423531281474887,-0.26499152083934296,-0.26499152083934296,0.3423531281474887,navigate,1.1988348489805176
4.879999999999984,0.6301180733592524,0.6301180733592524,5.06104513700657,0.8375734642058206,0.8375734642058206,-0.11764960753216802,-0.2788388409217896,-0.2788388409217896,0.32242438728956235,-0.2788388409217896,-0.2788388409217896,0.32242438728956235,navigate,1.1903361063312963
4.8999999999999835,0.6467529655773473,0.6467529655773473,5.058813619899896,0.8317446109047447,0.8317446109047447,-0.11157585533369654,-0.2914426650537941,-0.2914426650537941,0.3036876099235739,-0.2914426650537941,-0.2914426650537941,0.3036876099235739,navigate,1.1815444837295024
4.919999999999983,0.6632667032374382,0.6632667032374382,5.056696531368225,0.8256868830045462,0.8256868830045462,-0.10585442658355976,-0.302886395009925,-0.302886395009925,0.2860714375068391,-0.302886395009925,-0.302886395009925,0.2860714375068391,navigate,1.1724857428382063
4.939999999999983,0.6796551416547979,0.6796551416547979,5.054687246320915,0.8194219208679877,0.8194219208679877,-0.10046425236546849,-0.3132481068279229,-0.3132481068279229,0.26950871090456313,-0.3132481068279229,-0.3132481068279229,0.26950871090456313,navigate,1.1631842651967563
4.959999999999982,0.6959145397222222,0.6959145397222222,5.052779535767363,0.8129699033712148,0.8129699033712148,-0.09538552767758976,-0.32260087483864763,-0.32260087483864763,0.25393623439393637,-0.32260087483864763,-0.32260087483864763,0.25393623439393637,navigate,1.1536630905360268
4.979999999999982,0.7120415325582995,0.7120415325582995,5.050967543034452,0.8063496418038688,0.8063496418038688,-0.09059963664554714,-0.331013078367297,-0.331013078367297,0.239294551602131,-0.331013078367297,-0.331013078367297,0.239294551602131,navigate,1.1439439600936578
4.999999999999981,0.7280331059177062,0.7280331059177062,5.049245761394703,0.7995786679703356,0.7995786679703356,-0.08608908198748222,-0.3385486916766617,-0.3385486916766617,0.22552773290324635,-0.3385486916766617,-0.3385486916766617,0.22552773290324635,navigate,1.134047363465865
5.019999999999981,0.7438865722540084,0.7438865722540084,5.047609013024478,0.7926733168151132,0.7926733168151132,-0.08183741851124438,-0.34526755776111767,-0.34526755776111767,0.21258317381189187,-0.34526755776111767,-0.34526755776111767,0.21258317381189187,navigate,1.123992587809159
5.0399999999999805,0.7595995483316602,0.7595995483316602,5.0460524292158215,0.7856488038825864,0.7856488038825864,-0.07782919043281224,-0.35122564662634187,-0.35122564662634187,0.20041140392160683,-0.35122564662634187,-0.35122564662634187,0.20041140392160683,navigate,1.1137977684336167
5.05999999999998,0.7751699342898295,0.7751699342898295,5.044571431769543,0.778519297908465,0.778519297908465,-0.07404987231390213,-0.3564752987060693,-0.3564752987060693,0.18896590594550544,-0.3564752987060693,-0.3564752987060693,0.18896590594550544,navigate,1.1034799400177076
5.07999999999998,0.7905958940663688,0.7905958940663688,5.043161715501035,0.7712979888269619,0.7712979888269619,-0.07048581342539216,-0.36106545407515234,-0.36106545407515234,0.1782029444254983,-0.36106545407515234,-0.36106545407515234,0.1782029444254983,navigate,1.0930550878301017
5.099999999999979,0.8058758370956604,0.8058758370956604,5.041819231794001,0.7639971514645789,0.7639971514645789,-0.06712418535168718,-0.3650418681191473,-0.3650418681191473,0.16808140368524907,-0.3650418681191473,-0.3650418681191473,0.16808140368524907,navigate,1.082538198472049
5.119999999999979,0.8210084011992256,0.8210084011992256,5.040540173140812,0.7566282051782635,0.7566282051782635,-0.0639529326594601,-0.3684473143157707,-0.3684473143157707,0.15856263461135414,-0.3684473143157707,-0.3684473143157707,0.15856263461135414,navigate,1.071943309759572
5.139999999999978,0.8359924365928812,0.8359924365928812,5.039320958611565,0.7492017696827835,0.7492017696827835,-0.060960726462322735,-0.3713217747739963,-0.3713217747739963,0.14961030985686816,-0.3713217747739963,-0.3713217747739963,0.14961030985686816,navigate,1.0612835594516874
5.159999999999978,0.8508269909388717,0.8508269909388717,5.038158220197148,0.7417277172995205,0.7417277172995205,-0.05813692072088936,-0.37370261916314956,-0.37370261916314956,0.14119028707166897,-0.37370261916314956,-0.37370261916314956,0.14119028707166897,navigate,1.0505712326023504
5.1799999999999775,0.865511295375803,0.865511295375803,5.03704878997464,0.7342152218465618,0.7342152218465618,-0.055471511125390116,-0.3756247726479337,-0.3756247726479337,0.13327047977496204,-0.3756247726479337,-0.3756247726479337,0.13327047977496204,navigate,1.0398178073724869
5.199999999999977,0.8800447514633636,0.8800447514633636,5.035989688046331,0.7266728043780304,0.7266728043780304,-0.05295509641545831,-0.3771208734265724,-0.3771208734265724,0.1258207354965906,-0.3771208734265724,-0.3771208734265724,0.1258207354965906,navigate,1.0290339991864375
5.219999999999977,0.8944269189827447,0.8944269189827447,5.034978111206352,0.7191083759690554,0.7191083759690554,-0.05057884199894604,-0.3782214204487483,-0.3782214204487483,0.11881272082561317,-0.3782214204487483,-0.3782214204487483,0.11881272082561317,navigate,1.0182298031562713
5.239999999999976,0.9086575045373785,0.9086575045373785,5.03401142229158,0.7115292777316897,0.7115292777316897,-0.048334445738609,-0.37895491186828323,-0.37895491186828323,0.11221981301685242,-0.37895491186828323,-0.37895491186828323,0.11221981301685242,navigate,1.0074145347291843
5.259999999999976,0.9227363509021071,0.9227363509021071,5.033087140175935,0.7039423182364318,0.7039423182364318,-0.04621410578223926,-0.37934797476289706,-0.37934797476289706,0.10601699781848692,-0.37934797476289706,-0.37934797476289706,0.10601699781848692,navigate,0.9965968685388369
5.279999999999975,0.9366634270721836,0.9366634270721836,5.032202930369569,0.6963538085038246,0.6963538085038246,-0.044210490318310106,-0.3794254866303656,-0.3794254866303656,0.10018077319645752,-0.3794254866303656,-0.3794254866303656,0.10018077319645752,navigate,0.9857848754620593
5.299999999999975,0.9504388189666013,0.9504388189666013,5.031356596186661,0.6887695947208825,0.6887695947208825,-0.04231670914542605,-0.37921068914710077,-0.37921068914710077,0.09468905864420275,-0.37921068914710077,-0.37921068914710077,0.09468905864420275,navigate,0.9749860578986943
5.3199999999999745,0.9640627207431581,0.9640627207431581,5.030546070447664,0.6811950888278419,0.6811950888278419,-0.04052628694984675,-0.37872529465203064,-0.37872529465203064,0.08952110977896469,-0.37872529465203064,-0.37872529465203064,0.08952110977896469,navigate,0.964207383305212
5.339999999999974,0.9775354266853967,0.9775354266853967,5.029769407683842,0.6736352971119285,0.6736352971119285,-0.03883313819107407,-0.37798958579566855,-0.37798958579566855,0.08465743793863405,-0.37798958579566855,-0.37798958579566855,0.08465743793863405,navigate,0.9534553160226856
5.359999999999974,0.9908573236241266,0.9908573236241266,5.029024776813823,0.6660948469364938,0.6660948469364938,-0.03723154350096032,-0.37702250877173216,-0.37702250877173216,0.08007973450568753,-0.37702250877173216,-0.37702250877173216,0.08007973450568753,navigate,0.9427358474472932
5.379999999999973,1.0040288838586457,1.0040288838586457,5.028310454263682,0.6585780117259602,0.6585780117259602,-0.03571612750701771,-0.37584176052667684,-0.37584176052667684,0.07577079969713033,-0.37584176052667684,-0.37584176052667684,0.07577079969713033,navigate,0.932054524597105
5.399999999999973,1.0170506585450365,1.0170506585450365,5.027624817503771,0.6510887343195385,0.6510887343195385,-0.03428183799558576,-0.3744638703210869,-0.3744638703210869,0.07171447557159744,-0.3744638703210869,-0.3744638703210869,0.07171447557159744,navigate,0.9214164771328939
5.419999999999972,1.0299232715210287,1.0299232715210287,5.026966338977066,0.6436306487996141,0.6436306487996141,-0.03292392633525452,-0.37290427599622034,-0.37290427599622034,0.06789558301656214,-0.37290427599622034,-0.37290427599622034,0.06789558301656214,navigate,0.9108264428933504
5.439999999999972,1.0426474135389094,1.0426474135389094,5.026333580395357,0.6362071008940333,0.6362071008940333,-0.03163792908544928,-0.37117739527903587,-0.37117739527903587,0.06429986249026177,-0.37117739527903587,-0.37117739527903587,0.06429986249026177,navigate,0.9002887920066523
5.4599999999999715,1.0552238368798141,1.0552238368798141,5.02572518738097,0.6288211670452347,0.6288211670452347,-0.030419650719366226,-0.36929669243992985,-0.36929669243992985,0.06091391830415274,-0.36929669243992985,-0.36929669243992985,0.06091391830415274,navigate,0.8898075496410166
5.479999999999971,1.0676533503244792,1.0676533503244792,5.02513988443308,0.6214756722332538,0.6214756722332538,-0.029265147394514326,-0.3672747405990422,-0.3672747405990422,0.05772516624259506,-0.3672747405990422,-0.3672747405990422,0.05772516624259506,navigate,0.879386417456838
5.499999999999971,1.0799368144571604,1.0799368144571604,5.02457647019892,0.6141732066340634,0.6141732066340634,-0.0281707117079743,-0.3651232799595247,-0.3651232799595247,0.05472178432700143,-0.3651232799595247,-0.3651232799595247,0.05472178432700143,navigate,0.8690287938224311
5.51999999999997,1.0920751372809498,1.0920751372809498,5.0240338130313775,0.606916141189474,0.606916141189474,-0.027132858377139503,-0.36285327222946795,-0.36285327222946795,0.05189266654173984,-0.36285327222946795,-0.36285327222946795,0.05189266654173984,navigate,0.8587377928543479
5.53999999999997,1.104069270124148,1.104069270124148,5.023510846815574,0.5997066421599074,0.5997066421599074,-0.026148310790161614,-0.36047495147833125,-0.36047495147833125,0.0492273793488945,-0.36047495147833125,-0.36047495147833125,0.0492273793488945,navigate,0.8485162623418607
5.559999999999969,1.1159202038186826,1.1159202038186826,5.023006567048102,0.5925466847267338,0.5925466847267338,-0.025213988373596823,-0.3579978716586829,-0.3579978716586829,0.04671612082823946,-0.3579978716586829,-0.3579978716586829,0.04671612082823946,navigate,0.8383668006135443
5.579999999999969,1.1276289651328133,1.1276289651328133,5.022520027153545,0.5854380657065381,0.5854380657065381,-0.024326994727842194,-0.355430951009785,-0.355430951009785,0.044349682287731416,-0.355430951009785,-0.355430951009785,0.044349682287731416,navigate,0.8282917724020408
5.599999999999969,1.1391966134415257,1.1391966134415257,5.022050335023867,0.5783824154356165,0.5783824154356165,-0.023484606483874387,-0.3527825135460792,-0.3527825135460792,0.04211941219839029,-0.3527825135460792,-0.3527825135460792,0.04211941219839029,navigate,0.818293323761094
5.619999999999968,1.1506242376191096,1.1506242376191096,5.021596649767116,0.5713812088791987,0.5713812088791987,-0.022684262837564063,-0.3500603278208875,-0.3500603278208875,0.040017182315516125,-0.3500603278208875,-0.3500603278208875,0.040017182315516125,navigate,0.8083733960868533
5.639999999999968,1.161912953139436,1.161912953139436,5.0211581786527075,0.5644357760163267,0.5644357760163267,-0.021923555720443782,-0.34727164314360365,-0.34727164314360365,0.038035355856014134,-0.34727164314360365,-0.34727164314360365,0.038035355856014134,navigate,0.7985337392932957
5.659999999999967,1.1730638993703957,1.1730638993703957,5.020734174241342,0.5575473115479799,0.5575473115479799,-0.02120022056826491,-0.3444232234173385,-0.3444232234173385,0.03616675760894367,-0.3444232234173385,-0.3444232234173385,0.03616675760894367,navigate,0.7887759241894389
5.679999999999967,1.184078237049854,1.184078237049854,5.020323931688322,0.5507168839729143,0.5507168839729143,-0.02051212765099655,-0.3415213787532804,-0.3415213787532804,0.034404645863418036,-0.3415213787532804,-0.3415213787532804,0.034404645863418036,navigate,0.7791013541038441
5.699999999999966,1.194957145931309,1.194957145931309,5.01992678620972,0.5439454440727538,0.5439454440727538,-0.019857273930102795,-0.33857199500802254,-0.33857199500802254,0.032742686044687795,-0.33857199500802254,-0.33857199500802254,0.032742686044687795,navigate,0.7695112757997415
5.719999999999966,1.205701822588212,1.205701822588212,5.019542110701501,0.5372338328451409,0.5372338328451409,-0.019233775410992682,-0.33558056138064474,-0.33558056138064474,0.031174925955505667,-0.33558056138064474,-0.33558056138064474,0.031174925955505667,navigate,0.760006789721988
5.739999999999966,1.2163134783666358,1.2163134783666358,5.0191693135022915,0.5305827889211913,0.5305827889211913,-0.018639859960474545,-0.3325521961974845,-0.3325521961974845,0.02969577252590688,-0.3325521961974845,-0.3325521961974845,0.02969577252590688,navigate,0.7505888596149859
5.759999999999965,1.226793337476658,1.226793337476658,5.018807836291074,0.523992955501107,0.523992955501107,-0.018073860560870764,-0.3294916710042106,-0.3294916710042106,0.028299969980189153,-0.3294916710042106,-0.3294916710042106,0.028299969980189153,navigate,0.741258321548665
5.779999999999965,1.2371426352134494,1.2371426352134494,5.0184571521115915,0.517464886839567,0.517464886839567,-0.01753420897416628,-0.3264034330769981,-0.3264034330769981,0.026982579335224074,-0.3264034330769981,-0.3264034330769981,0.026982579335224074,navigate,0.7320158923876732
5.799999999999964,1.2473626162996578,1.2473626162996578,5.018116763515768,0.510999054310421,0.510999054310421,-0.017019429791179215,-0.3232916264572986,-0.3232916264572986,0.02573895914935333,-0.3232916264572986,-0.3232916264572986,0.02573895914935333,navigate,0.7228621777370192
5.819999999999964,1.257454533341223,1.257454533341223,5.0177862008189225,0.5045958520782645,0.5045958520782645,-0.01652813484226199,-0.3201601116078281,-0.3201601116078281,0.024564747445861266,-0.3201601116078281,-0.3201601116078281,0.024564747445861266,navigate,0.7137976793955999
5.839999999999963,1.2674196453892759,1.2674196453892759,5.017465020459973,0.4982556024026449,0.4982556024026449,-0.016059017947470257,-0.31701248378098296,-0.31701248378098296,0.02345584473958659,-0.31701248378098296,-0.31701248378098296,0.02345584473958659,navigate,0.7048228023472866
5.859999999999963,1.2772592166012549,1.2772592166012549,5.017152803460263,0.49197856059894735,0.49197856059894735,-0.015610849985480905,-0.31385209018487553,-0.31385209018487553,0.022408398099467576,-0.31385209018487553,-0.31385209018487553,0.022408398099467576,navigate,0.6959378613175845
5.879999999999963,1.286974514994823,1.286974514994823,5.016849153975027,0.4857649196784162,0.4857649196784162,-0.015182474261803289,-0.31068204602655897,-0.31068204602655897,0.021418786183880757,-0.31068204602655897,-0.31068204602655897,0.021418786183880757,navigate,0.6871430869222702
5.899999999999962,1.2965668112885886,1.2965668112885886,5.016553697931867,0.4796148146882814,0.4796148146882814,-0.014772802158015377,-0.3075052495067403,-0.3075052495067403,0.020483605189395605,-0.3075052495067403,-0.3075052495067403,0.020483605189395605,navigate,0.6784386314329018
5.919999999999962,1.3060373778240202,1.3060373778240202,5.016266081750969,0.473528326771574,0.473528326771574,-0.014380809044871939,-0.3043243958353683,-0.3043243958353683,0.019599655657171908,-0.3043243958353683,-0.3043243958353683,0.019599655657171908,navigate,0.6698245741826424
5.939999999999961,1.3153874875633185,1.3153874875633185,5.015985971142106,0.46750548696491667,0.46750548696491667,-0.014005530443179917,-0.30114199033286826,-0.30114199033286826,0.018763930084601154,-0.30114199033286826,-0.30114199033286826,0.018763930084601154,navigate,0.6613009266344654
5.959999999999961,1.3246184131583458,1.3246184131583458,5.015713049973759,0.4615462797513666,0.4615462797513666,-0.013646058417321404,-0.29796036067750503,-0.29796036067750503,0.01797360129292568,-0.29796036067750503,-0.29796036067750503,0.01797360129292568,navigate,0.6528676371325066
5.9799999999999605,1.3337314260860311,1.3337314260860311,5.015447019210015,0.45565064638425995,0.45565064638425995,-0.013301538187229081,-0.294781668355332,-0.294781668355332,0.017226011504616147,-0.294781668355332,-0.294781668355332,0.017226011504616147,navigate,0.644524595356092
5.99999999999996,1.3427277958459702,1.3427277958459702,5.015187595911105,0.4498184879969514,0.4498184879969514,-0.012971164945488183,-0.29160791936542785,-0.29160791936542785,0.016518662087044927,-0.29160791936542785,-0.29160791936542785,0.016518662087044927,navigate,0.6362716364947993
6.01999999999996,1.3516087892162174,1.3516087892162174,5.014934512293764,0.4440496685123591,0.4440496685123591,-0.01265418086705399,-0.28844097422961407,-0.28844097422961407,0.015849203921709597,-0.28844097422961407,-0.28844097422961407,0.015849203921709597,navigate,0.628108545161812
6.039999999999959,1.3603756695635236,1.3603756695635236,5.014687514847767,0.4383440173653075,0.4383440173653075,-0.01234987229984154,-0.28528255735258007,-0.28528255735258007,0.015215428360622504,-0.28528255735258007,-0.28528255735258007,0.015215428360622504,navigate,0.620035059061773
6.059999999999959,1.3690296962045196,1.3690296962045196,5.0144463635052645,0.43270133204980205,0.43270133204980205,-0.012057567125161666,-0.2821342657752709,-0.2821342657752709,0.014615258733993747,-0.2821342657752709,-0.2821342657752709,0.014615258733993747,navigate,0.612050872428366
6.079999999999958,1.377572123814571,1.377572123814571,5.014210830859711,0.42712138050257115,0.42712138050257115,-0.011776632277654304,-0.2789975773615462,-0.2789975773615462,0.014046742375368041,-0.2789975773615462,-0.2789975773615462,0.014046742375368041,navigate,0.604155639245921
6.099999999999958,1.3860042018812404,1.3860042018812404,5.013980701431411,0.42160390333346204,0.42160390333346204,-0.011506471415003204,-0.27587385845545415,-0.27587385845545415,0.013508043132555042,-0.27587385845545415,-0.27587385845545415,0.013508043132555042,navigate,0.5963489762684654
6.1199999999999575,1.394327174199492,1.394327174199492,5.013755770976845,0.4161486159125827,0.4161486159125827,-0.011246522728311814,-0.2727643710439679,-0.2727643710439679,0.012997434334569511,-0.2727643710439679,-0.2727643710439679,0.012997434334569511,navigate,0.5886304658488167
6.139999999999957,1.4025422784059607,1.4025422784059607,5.0135358458391535,0.41075521032342827,0.41075521032342827,-0.010996256884578287,-0.2696702794577197,-0.2696702794577197,0.01251329218667632,-0.2696702794577197,-0.2696702794577197,0.01251329218667632,navigate,0.5809996585895376
6.159999999999957,1.4106507455497732,1.4106507455497732,5.013320742337289,0.4054233571906263,0.4054233571906263,-0.010755175093232556,-0.2665926566400988,-0.2665926566400988,0.012054089567286572,-0.2665926566400988,-0.2665926566400988,0.012054089567286572,navigate,0.5734560758268433
6.179999999999956,1.4186537996975805,1.4186537996975805,5.013110286191505,0.40015270739036535,0.40015270739036535,-0.010522807289190222,-0.2635324900130465,-0.2635324900130465,0.011618390202116684,-0.2635324900130465,-0.2635324900130465,0.011618390202116684,navigate,0.565999211957865
6.199999999999956,1.4265526575706013,1.4265526575706013,5.012904311982998,0.39494289365104507,0.39494289365104507,-0.01029871042534058,-0.26049068696601513,-0.26049068696601513,0.01120484319248212,-0.26049068696601513,-0.26049068696601513,0.01120484319248212,navigate,0.5586285366210236
6.219999999999955,1.434348528211625,1.434348528211625,5.012702662645642,0.38979353205118955,0.38979353205118955,-0.01008246686781868,-0.257468079992776,-0.257468079992776,0.010812177876095013,-0.257468079992776,-0.257468079992776,0.010812177876095013,navigate,0.5513434967386702
6.239999999999955,1.4420426126800492,1.4420426126800492,5.012505188987886,0.38470422342120686,0.38470422342120686,-0.009873682887819741,-0.2544654314991356,-0.2544654314991356,0.010439198999946948,-0.2544654314991356,-0.2544654314991356,0.010439198999946948,navigate,0.5441435184305671
6.2599999999999545,1.449636103773152,1.449636103773152,5.012311749243004,0.3796745546551454,0.3796745546551454,-0.009671987244094907,-0.25148343830307374,-0.25148343830307374,0.010084782186241694,-0.25148343830307374,-0.25148343830307374,0.010084782186241694,navigate,0.5370280088062594
6.279999999999954,1.4571301857719159,1.4571301857719159,5.012122208645992,0.3747040999381974,0.3747040999381974,-0.009477029850626621,-0.2485227358473984,-0.2485227358473984,0.009747869673414324,-0.2485227358473984,-0.2485227358473984,0.009747869673414324,navigate,0.5299963576438794
6.299999999999954,1.4645260342098223,1.4645260342098223,5.011936439035505,0.369792421895324,0.369792421895324,-0.009288480524318209,-0.24558390214366993,-0.24558390214366993,0.009427466315420626,-0.24558390214366993,-0.24558390214366993,0.009427466315420626,navigate,0.5230479389624523
6.319999999999953,1.4718248156631428,1.4718248156631428,5.0117543184793485,0.3649390726660259,0.3649390726660259,-0.009106027807847467,-0.242667461464907,-0.242667461464907,0.009122635823537114,-0.242667461464907,-0.242667461464907,0.009122635823537114,navigate,0.5161821124943358
6.339999999999953,1.479027687561342,1.479027687561342,5.011575730922086,0.3601435949099574,0.3601435949099574,-0.008929377863131516,-0.2397738878034236,-0.2397738878034236,0.008832497235797552,-0.2397738878034236,-0.2397738878034236,0.008832497235797552,navigate,0.5093982250640039
6.359999999999952,1.4861357980162975,1.4861357980162975,5.011400565853464,0.3554055227477761,0.3554055227477761,-0.008758253431126949,-0.23690360810906488,-0.23690360810906488,0.008556221600228406,-0.23690360810906488,-0.23690360810906488,0.008556221600228406,navigate,0.5026956118790016
6.379999999999952,1.493150285669124,1.493150285669124,5.011228717996385,0.3507243826413341,0.3507243826413341,-0.008592392853951521,-0.23405700532209833,-0.23405700532209833,0.008293028858771407,-0.23405700532209833,-0.23405700532209833,0.008293028858771407,navigate,0.4960735977385276
6.3999999999999515,1.5000722795534651,1.5000722795534651,5.0110600870132735,0.3460996942170527,0.3460996942170527,-0.00843154915555782,-0.23123442121406856,-0.23123442121406856,0.008042184919685088,-0.23123442121406856,-0.23123442121406856,0.008042184919685088,navigate,0.489531498164763
6.419999999999951,1.5069028989741866,1.5069028989741866,5.010894577229725,0.34153097103607155,0.34153097103607155,-0.008275489177419765,-0.2284361590490587,-0.2284361590490587,0.007802998906902782,-0.2284361590490587,-0.2284361590490587,0.007802998906902782,navigate,0.4830686204617409
6.439999999999951,1.5136432534004773,1.5136432534004773,5.010732097374406,0.3370177213145324,0.3370177213145324,-0.008123992765908198,-0.225662486076959,-0.225662486076959,0.0075748205755783804,-0.225662486076959,-0.225662486076959,0.0075748205755783804,navigate,0.476684264706252
6.45999999999995,1.52029444237242,1.52029444237242,5.010572560334242,0.33255944859714043,0.33255944859714043,-0.007976852008234678,-0.22291363586959748,-0.22291363586959748,0.007357037883676013,-0.22291363586959748,-0.22291363586959748,0.007357037883676013,navigate,0.4703777246749993
6.47999999999995,1.5268575554201589,1.5268575554201589,5.010415882923962,0.3281556523869432,0.3281556523869432,-0.007833870514032538,-0.22018981050986108,-0.22018981050986108,0.007149074710107015,-0.22018981050986108,-0.22018981050986108,0.007149074710107015,navigate,0.4641482887119495
6.499999999999949,1.5333336719948405,1.5333336719948405,5.010261985669165,0.32380582873407776,0.32380582873407776,-0.007694862739822573,-0.2174911826432743,-0.2174911826432743,0.0069503887104982835,-0.2174911826432743,-0.2174911826432743,0.0069503887104982835,navigate,0.457995240539583
6.519999999999949,1.5397238614105617,1.5397238614105617,5.010110792602089,0.31950947078606035,0.31950947078606035,-0.007559653353778689,-0.21481789740087137,-0.21481789740087137,0.006760469302194203,-0.21481789740087137,-0.21481789740087137,0.006760469302194203,navigate,0.4519178600175103
6.5399999999999485,1.5460291827966022,1.5460291827966022,5.009962231069322,0.3152660693020277,0.3152660693020277,-0.007428076638365525,-0.21217007420163098,-0.21217007420163098,0.0065788357706582186,-0.21217007420163098,-0.21217007420163098,0.0065788357706582186,navigate,0.4459154238517068
6.559999999999948,1.5522506850592659,1.5522506850592659,5.00981623155075,0.3110751131331839,0.3110751131331839,-0.007299975928567619,-0.209547808442189,-0.209547808442189,0.00640503548989532,-0.209547808442189,-0.209547808442189,0.00640503548989532,navigate,0.43998720625741383
6.579999999999948,1.5583894068526971,1.5583894068526971,5.009672727489079,0.30693608967156305,0.30693608967156305,-0.007175203083568785,-0.20695117308104335,-0.20695117308104335,0.00623864224994166,-0.20695117308104335,-0.20695117308104335,0.00623864224994166,navigate,0.43413247957856144
6.599999999999947,1.5644463765580787,1.5644463765580787,5.0095316551292814,0.3028484852690832,0.3028484852690832,-0.007053617989869836,-0.2043802201239913,-0.2043802201239913,0.006079254684947477,-0.2043802201239913,-0.2043802201239913,0.006079254684947477,navigate,0.42835051486639214
6.619999999999947,1.5704226122706535,1.5704226122706535,5.009392953367402,0.29881178562874117,0.29881178562874117,-0.006935088093954954,-0.20183498201710054,-0.20183498201710054,0.005926494795744098,-0.20183498201710054,-0.20183498201710054,0.005926494795744098,navigate,0.4226405824197961
6.639999999999946,1.576319121794047,1.576319121794047,5.009256563608147,0.2948254761696791,0.2948254761696791,-0.006819487962731871,-0.19931547295310403,-0.19931547295310403,0.005780006561154146,-0.19931547295310403,-0.19931547295310403,0.005780006561154146,navigate,0.4170019522897103
6.659999999999946,1.582136902641402,1.582136902641402,5.009122429630746,0.29088904236774465,0.29088904236774465,-0.0067066988700783805,-0.1968216900967209,-0.1968216900967209,0.0056394546326744895,-0.1968216900967209,-0.1968216900967209,0.0056394546326744895,navigate,0.41143389474978964
6.6799999999999455,1.5878769420428633,1.5878769420428633,5.008990497462587,0.28700197007306366,0.28700197007306366,-0.006596608407928657,-0.1943536147340501,-0.1943536147340501,0.005504523107486165,-0.1943536147340501,-0.1943536147340501,0.005504523107486165,navigate,0.40593568073541775
6.699999999999945,1.5935402169589843,1.5935402169589843,5.0088607152601785,0.28316374580604664,0.28316374580604664,-0.006489110120427921,-0.19191121335085098,-0.19191121335085098,0.0053749143750368,-0.19191121335085098,-0.19191121335085098,0.0053749143750368,navigate,0.4005065822529985
6.719999999999945,1.5991276940996475,1.5991276940996475,5.008733033196983,0.27937385703316253,0.27937385703316253,-0.006384103159772727,-0.18949443864420543,-0.18949443864420543,0.005250348032759733,-0.18949443864420543,-0.18949443864420543,0.005250348032759733,navigate,0.39514587276134683
6.739999999999944,1.604640329948122,1.604640329948122,5.008607403357734,0.2756317924237271,0.2756317924237271,-0.006281491962438239,-0.18710323047177113,-0.18710323047177113,0.00513055986672439,-0.18710323047177113,-0.18710323047177113,0.00513055986672439,navigate,0.38985282752688527
6.759999999999944,1.6100790707898995,1.6100790707898995,5.008483779638843,0.2719370420888759,0.2719370420888759,-0.00618118594457166,-0.18473751674255823,-0.18473751674255823,0.0050153008933289285,-0.18473751674255823,-0.18473751674255823,0.0050153008933289285,navigate,0.38462672395424574
6.779999999999943,1.615444852745976,1.615444852745976,5.008362117654535,0.2682890978038177,0.2682890978038177,-0.006083099215405343,-0.18239721425291008,-0.18239721425291008,0.004904336458315874,-0.18239721425291008,-0.18239721425291008,0.004904336458315874,navigate,0.37946684189377783
6.799999999999943,1.6207386018102639,1.6207386018102639,5.008242374648383,0.26468745321439513,0.26468745321439513,-0.005987150307611968,-0.18008222947112842,-0.18008222947112842,0.004797445389668724,-0.18008222947112842,-0.18008222947112842,0.004797445389668724,navigate,0.3743724639273716
6.8199999999999426,1.6259612338908422,1.6259612338908422,5.008124509409911,0.26113160402891583,0.26113160402891583,-0.005893261923589304,-0.177792459273964,-0.177792459273964,0.004694419201133191,-0.177792459273964,-0.177792459273964,0.004694419201133191,navigate,0.3693428756339142
6.839999999999942,1.6311136548547653,1.6311136548547653,5.008008482195977,0.25762104819615617,0.25762104819615617,-0.005801360696723043,-0.17552779163798354,-0.17552779163798354,0.004595061343313065,-0.17552779163798354,-0.17552779163798354,0.004595061343313065,navigate,0.3643773658356209
6.859999999999942,1.636196760576173,1.636196760576173,5.007894254656642,0.25415528607038357,0.25415528607038357,-0.005711376966733617,-0.1732881062886299,-0.1732881062886299,0.004499186499471287,-0.1732881062886299,-0.1732881062886299,0.004499186499471287,navigate,0.359475226826402
6.879999999999941,1.6412114369874566,1.6412114369874566,5.007781789765277,0.25073382056419125,0.25073382056419125,-0.005623244568266717,-0.17107327530961636,-0.17107327530961636,0.004406619923345002,-0.17107327530961636,-0.17107327530961636,0.004406619923345002,navigate,0.35463575458335644
6.899999999999941,1.6461585601332545,1.6461585601332545,5.007671051752638,0.24735615728988888,0.24735615728988888,-0.005536900631937783,-0.1688831637151177,-0.1688831637151177,0.004317196816446699,-0.1688831637151177,-0.1688831637151177,0.004317196816446699,navigate,0.34985824896241685
6.91999999999994,1.6510389962270573,1.6510389962270573,5.007562006044696,0.24402180469014745,0.24402180469014745,-0.00545228539708813,-0.16671762998707132,-0.16671762998707132,0.004230761742482651,-0.16671762998707132,-0.16671762998707132,0.004230761742482651,navigate,0.34514201387910487
6.93999999999994,1.6574536017102284,1.6574536017102284,5.007454619203985,0.3207302741585525,0.3207302741585525,-0.005369342035555413,3.835423473420253,3.835423473420253,0.0041471680766358605,3.835423473420253,3.835423473420253,0.0041471680766358605,navigate,0.4536128827067583
6.95999999999994,1.66528740243284,1.66528740243284,5.007348883170869,0.3916900361305799,0.3916900361305799,-0.0052868016557879455,3.5479880986013703,3.5479880986013703,0.00412701898837335,3.5479880986013703,3.5479880986013703,0.00412701898837335,navigate,0.5539585896794972
6.979999999999939,1.6744319279805222,1.6744319279805222,5.007244786700302,0.45722627738411287,0.45722627738411287,-0.005204823528339261,3.2768120626766493,3.2768120626766493,0.004098906372434203,3.2768120626766493,3.2768120626766493,0.004098906372434203,navigate,0.6466365498864324
6.999999999999939,1.6847849648285813,1.6847849648285813,5.00714231577848,0.5176518424029539,0.5176518424029539,-0.005123546091109322,3.021278250942053,3.021278250942053,0.004063871861496943,3.021278250942053,3.021278250942053,0.004063871861496943,navigate,0.7320881849961062
7.019999999999938,1.6962503024535027,1.6962503024535027,5.007041454004065,0.5732668812460746,0.5732668812460746,-0.005043088720753685,2.780751942156032,2.780751942156032,0.004022868517781842,2.780751942156032,2.780751942156032,0.004022868517781842,navigate,0.8107374834131251
7.039999999999938,1.708737475444772,1.708737475444772,5.006942182935497,0.6243586495634582,0.6243586495634582,-0.004963553428347342,2.5545884158691803,2.5545884158691803,0.003976764620317188,2.5545884158691803,2.5545884158691803,0.003976764620317188,navigate,0.8829904209174902
7.059999999999937,1.7221615042380252,1.7221615042380252,5.006844482406187,0.6712014396626622,0.6712014396626622,-0.004885026465521044,2.342139504960201,2.342139504960201,0.003926348141314869,2.342139504960201,2.342139504960201,0.003926348141314869,navigate,0.9492347489920655
7.079999999999937,1.7364426367031562,1.7364426367031562,5.0067483308094785,0.7140566232565523,0.7140566232565523,-0.004807579835440428,2.1427591796945014,2.1427591796945014,0.003872331504030797,2.1427591796945014,2.1427591796945014,0.003872331504030797,navigate,1.0098400047814375
7.099999999999937,1.7515060924686119,1.7515060924686119,5.006653705355349,0.7531727882727801,0.7531727882727801,-0.004731272706450737,1.9558082508113932,1.9558082508113932,0.0038153564494845388,1.9558082508113932,1.9558082508113932,0.0038153564494845388,navigate,1.0651576798439801
7.119999999999936,1.7672818115453235,1.7672818115453235,5.006560582300783,0.7887859538355845,0.7887859538355845,-0.004656152728295728,1.78065827814022,1.78065827814022,0.003755998907750486,1.78065827814022,1.78065827814022,0.003755998907750486,navigate,1.1155215110856693
7.139999999999936,1.7837042085294632,1.7837042085294632,5.006468937155737,0.821119849206989,0.821119849206989,-0.004582257252291723,1.616694768570225,1.616694768570225,0.0036947738002002205,1.616694768570225,1.616694768570225,0.0036947738002002205,navigate,1.1612478678580826
7.159999999999935,1.8007119334109238,1.8007119334109238,5.006378744866578,0.8503862440730261,0.8503862440730261,-0.004509614457932389,1.4633197433018552,1.4633197433018552,0.00363213971796668,1.4633197433018552,1.4633197433018552,0.00363213971796668,navigate,1.2026362146716754
7.179999999999935,1.81824763979221,1.81824763979221,5.006289979978794,0.8767853190643157,0.8767853190643157,-0.004438244389217604,1.3199537495644762,1.3199537495644762,0.003568503435739255,1.3199537495644762,1.3199537495644762,0.003568503435739255,navigate,1.2399696324776208
7.1999999999999345,1.836257761128179,1.836257761128179,5.006202616780702,0.9005060667984413,0.9005060667984413,-0.004368159904595824,1.1860373867062801,1.1860373867062801,0.0035042242310890127,1.1860373867062801,1.1860373867062801,0.0035042242310890127,navigate,1.2735153840855435
7.219999999999934,1.8546922954285463,1.8546922954285463,5.006116629429806,0.9217267150183629,0.9217267150183629,-0.0042993675448248945,1.0610324109960798,1.0610324109960798,0.003439617988546514,1.0610324109960798,1.0610324109960798,0.003439617988546514,navigate,1.3035255114183113
7.239999999999934,1.8735045987200418,1.8735045987200418,5.006031992063339,0.9406151645747711,0.9406151645747711,-0.0042318683233240895,0.9444224778204138,0.9444224778204138,0.003374961075040274,0.9444224778204138,0.9444224778204138,0.003374961075040274,navigate,1.3302374541282296
7.259999999999933,1.892651187441283,1.892651187441283,5.005948678894464,0.9573294360620588,0.9573294360620588,-0.004165658443735737,0.835713574364382,0.835713574364382,0.0033104939794176137,0.835713574364382,0.835713574364382,0.0033104939794176137,navigate,1.3538746806894901
7.279999999999933,1.9120915498387017,1.9120915498387017,5.005866664295475,0.972018119870937,0.972018119870937,-0.004100729949462074,0.7344341904439118,0.7344341904439118,0.003246424713683172,0.7344341904439118,0.7344341904439118,0.003246424713683172,navigate,1.3746473244803485
7.299999999999932,1.931787966344117,1.931787966344117,5.0057859228692765,0.9848208252707693,0.9848208252707693,-0.00403707130991182,0.6401352699916163,0.6401352699916163,0.0031829319775127066,0.6401352699916163,0.6401352699916163,0.0031829319775127066,navigate,1.392752818600185
7.319999999999932,1.9517053388418697,1.9517053388418697,5.005706429510314,0.9958686248876267,0.9958686248876267,-0.003974667948097506,0.5523899808428707,0.5523899808428707,0.0031201680907157053,0.5523899808428707,0.5523899808428707,0.0031201680907157053,navigate,1.4083765242492658
7.3399999999999315,1.971811028674005,1.971811028674005,5.005628159456033,1.0052844916067618,1.0052844916067618,-0.003913502714083697,0.4707933359567539,0.4707933359567539,0.0030582617006904645,0.4707933359567539,0.4707933359567539,0.0030582617006904645,navigate,1.4216923484473087
7.359999999999931,1.9920747031841624,1.9920747031841624,5.00555108832986,1.0131837255078682,1.0131837255078682,-0.0038535563086106624,0.39496169505531586,0.39496169505531586,0.0029973202736517145,0.39496169505531586,0.39496169505531586,0.0029973202736517145,navigate,1.4328633476937813
7.379999999999931,2.012468190563071,2.012468190563071,5.0054751921766405,1.0196743689454308,1.0196743689454308,-0.003794807661016557,0.3245321718781312,0.3245321718781312,0.0029374323797052657,0.3245321718781312,0.3245321718781312,0.0029374323797052657,navigate,1.4420423148901387
7.39999999999993,2.0329653427295082,2.0329653427295082,5.005400447491334,1.0248576083218714,1.0248576083218714,-0.003737234265362921,0.2591619688220294,0.2591619688220294,0.0028786697826817934,0.2591619688220294,0.2591619688220294,0.0028786697826817934,navigate,1.449372347463
7.41999999999993,2.053541905959008,2.053541905959008,5.0053268312417645,1.0288281614749826,1.0288281614749826,-0.003680812478440447,0.198527657655555,0.198527657655555,0.0028210893461237145,0.198527657655555,0.198527657655555,0.0028210893461237145,navigate,1.4549873951579397
7.439999999999929,2.074175398957406,2.074175398957406,5.0052543208861024,1.0316746499199143,1.0316746499199143,-0.0036255177831000605,0.14232442224658354,0.14232442224658354,0.002764734767019321,0.14232442224658354,0.14232442224658354,0.002764734767019321,navigate,1.4590127864257911
7.459999999999929,2.094844998066524,2.094844998066524,5.0051828943857,1.033479955455895,1.033479955455895,-0.003571325020121244,0.0902652767990369,0.0902652767990369,0.002709638148940826,0.0902652767990369,0.0902652767990369,0.002709638148940826,navigate,1.461565732706072
7.4799999999999285,2.115531429284017,2.115531429284017,5.005112530213868,1.0343215608746557,1.0343215608746557,-0.0035182085916012225,0.042080270938026326,0.042080270938026326,0.002655821426001066,0.042080270938026326,0.042080270938026326,0.002655821426001066,navigate,1.462755810233568
7.499999999999928,2.1362168667779455,2.1362168667779455,5.005043207361095,1.0342718746964306,1.0342718746964306,-0.0034661426386259075,-0.0024843089112545624,-0.0024843089112545624,0.002603297648765748,-0.0024843089112545624,-0.0024843089112545624,0.002603297648765748,navigate,1.4626854192617527
7.519999999999928,2.15688483757825,2.15688483757825,5.00497490533718,1.0333985400152206,1.0333985400152206,-0.0034151011957687083,-0.0436667340604969,-0.0436667340604969,0.0025520721428599633,-0.0436667340604969,-0.0436667340604969,0.0025520721428599633,navigate,1.4614502208174442
7.539999999999927,2.1775201321314905,2.1775201321314905,5.004907604170685,1.0317647276620299,1.0317647276620299,-0.0033650583247587544,-0.08169061765953933,-0.08169061765953933,0.002502143550497703,-0.08169061765953933,-0.08169061765953933,0.002502143550497703,navigate,1.4591395512810055
7.559999999999927,2.198108720411429,2.198108720411429,5.004841284406096,1.0294294139969316,1.0294294139969316,-0.003315988229465016,-0.11676568325491982,-0.11676568325491982,0.0024535047646869145,-0.11676568325491982,-0.11676568325491982,0.0024535047646869145,navigate,1.4558368152310441
7.579999999999926,2.2186376732858597,2.2186376732858597,5.004775927099013,1.0264476437215322,1.0264476437215322,-0.0032678653541596556,-0.1490885137699641,-0.1490885137699641,0.002406143765268018,-0.1490885137699641,-0.1490885137699641,0.002406143765268018,navigate,1.4516198571068613
7.599999999999926,2.2390950888491754,2.2390950888491754,5.004711513809676,1.022870778165777,1.022870778165777,-0.0032206644668520876,-0.17884327778775458,-0.17884327778775458,0.0023600443653784033,-0.17884327778775458,-0.17884327778775458,0.0023600443653784033,navigate,1.4465613123302217
7.6199999999999255,2.259470023440171,2.259470023440171,5.004648026595089,1.0187467295497903,1.0187467295497903,-0.0031743607293240007,-0.2062024307993427,-0.2062024307993427,0.002315186876404339,-0.2062024307993427,-0.2062024307993427,0.002315186876404339,navigate,1.4407289385942197
7.639999999999925,2.2797524270752705,2.2797524270752705,5.0045854479999825,1.014120181754977,1.014120181754977,-0.0031289297553463366,-0.2313273897406681,-0.2313273897406681,0.0022715486988832126,-0.2313273897406681,-0.2313273897406681,0.0022715486988832126,navigate,1.434185928074498
7.659999999999925,2.299933083038491,2.299933083038491,5.004523761046814,1.009032798161019,1.009032798161019,-0.003084347658421281,-0.2543691796978942,-0.2543691796978942,0.002229104846252792,-0.2543691796978942,-0.2543691796978942,0.002229104846252792,navigate,1.4269912013498154
7.679999999999924,2.3200035513808612,2.3200035513808612,5.004462949225009,1.0035234171185097,1.0035234171185097,-0.0030405910902633984,-0.275469052125464,-0.275469052125464,0.0021878284078941214,-0.275469052125464,-0.275469052125464,0.0021878284078941214,navigate,1.419199683837549
7.699999999999924,2.339956116093509,2.339956116093509,5.004402996479587,0.9976282356323832,0.9976282356323832,-0.002997637271117345,-0.29475907430632275,-0.29475907430632275,0.002147690957302654,-0.29475907430632275,-0.29475907430632275,0.002147690957302654,navigate,1.4108625655573874
7.719999999999923,2.3597837357301166,2.3597837357301166,5.004343887199329,0.9913809818303825,0.9913809818303825,-0.002955464012900727,-0.3123626901000385,-0.3123626901000385,0.0021086629108309,-0.3123626901000385,-0.3123626901000385,0.0021086629108309,navigate,1.402027545035217
7.739999999999923,2.3794799972658116,2.3794799972658116,5.004285606204608,0.9848130767847505,0.9848130767847505,-0.0029140497360619247,-0.32839525228159716,-0.32839525228159716,0.002070713841940128,-0.32839525228159716,-0.32839525228159716,0.002070713841940128,navigate,1.3927390581506494
7.7599999999999225,2.3990390729907145,2.3990390729907145,5.004228138734988,0.9779537862451542,0.9779537862451542,-0.002873373480952287,-0.34296452697981383,-0.34296452697981383,0.002033812755481891,-0.34296452697981383,-0.34296452697981383,0.002033812755481891,navigate,1.3830384927172585
7.779999999999922,2.4184556802472628,2.4184556802472628,5.0041714704367,0.9708303628274135,0.9708303628274135,-0.0028334149144289534,-0.3561711708870322,-0.3561711708870322,0.0019979283261666687,-0.3561711708870322,-0.3561711708870322,0.0019979283261666687,navigate,1.3729643895656187
7.799999999999922,2.437725043830996,2.437725043830996,5.004115587350054,0.9634681791866618,0.9634681791866618,-0.002794154332330152,-0.3681091820375836,-0.3681091820375836,0.0019630291049400604,-0.3681091820375836,-0.3681091820375836,0.0019630291049400604,navigate,1.3625526308766778
7.819999999999921,2.4568428608847106,2.4568428608847106,5.004060475896885,0.9558908526857222,0.9558908526857222,-0.00275557265839601,-0.3788663250469835,-0.3788663250469835,0.0019290836967071209,-0.3788663250469835,-0.3788663250469835,0.0019290836967071209,navigate,1.3518366164877875
7.839999999999921,2.475805268125716,2.475805268125716,5.004006122868082,0.9481203620502806,0.9481203620502806,-0.0027176514401456723,-0.388524531772078,-0.388524531772078,0.0018960609125168765,-0.388524531772078,-0.388524531772078,0.0018960609125168765,navigate,1.3408474288665584
7.85999999999992,2.4946088112553624,2.4946088112553624,5.003952515411239,0.94017715648231,0.94017715648231,-0.002680372842166611,-0.3971602783985292,-0.3971602783985292,0.0018639298989530557,-0.3971602783985292,-0.3971602783985292,0.0018639298989530557,navigate,1.3296139874192423
7.87999999999992,2.513250416409013,2.513250416409013,5.003899641018495,0.932080257682512,0.932080257682512,-0.0026437196372196222,-0.4048449399899028,-0.4048449399899028,0.001832660247349432,-0.4048449399899028,-0.4048449399899028,0.001832660247349432,navigate,1.318163192771106
7.8999999999999195,2.531727363513245,2.531727363513245,5.003847487514585,0.9238473552116042,0.9238473552116042,-0.0026076751955184736,-0.4116451235453873,-0.4116451235453873,0.0018022220850574377,-0.4116451235453873,-0.4116451235453873,0.0018022220850574377,navigate,1.3065200616266393
7.919999999999919,2.5500372614252313,2.5500372614252313,5.003796043045135,0.9154948955993327,0.9154948955993327,-0.0025722234725012506,-0.4176229806135717,-0.4176229806135717,0.0017725861508611604,-0.4176229806135717,-0.4176229806135717,0.0017725861508611604,navigate,1.2947078527878244
7.939999999999919,2.568178024737018,2.568178024737018,5.003745296065228,0.9070381655893309,0.9070381655893309,-0.0025373489953736234,-0.42283650050009003,-0.42283650050009003,0.0017437238563813495,-0.42283650050009003,-0.42283650050009003,0.0017437238563813495,navigate,1.2827481848793398
7.959999999999918,2.586147852134769,2.586147852134769,5.003695235328254,0.8984913698875451,0.8984913698875451,-0.002503036848670145,-0.42733978508929404,-0.42733978508929404,0.0017156073351739032,-0.42733978508929404,-0.42733978508929404,0.0017156073351739032,navigate,1.2706611463007202
7.979999999999918,2.6039452062100095,2.6039452062100095,5.003645849875073,0.889867703762021,0.889867703762021,-0.0024692726590506897,-0.4311833062762067,-0.4311833062762067,0.001688209480972771,-0.4311833062762067,-0.4311833062762067,0.001688209480972771,navigate,1.2584653978973155
7.999999999999917,2.621568794626459,2.621568794626459,5.003597129023483,0.8811794208224975,0.8811794208224975,-0.0024360425795212823,-0.4344141469761766,-0.4344141469761766,0.0016615039764703605,-0.4344141469761766,-0.4344141469761766,0.0016615039764703605,navigate,1.2461782688145358
8.019999999999918,2.63901755255225,2.63901755255225,5.003549062358018,0.8724378962895531,0.8724378962895531,-0.0024033332732451007,-0.4370762266472171,-0.4370762266472171,0.001635465313809074,-0.4370762266472171,-0.4370762266472171,0.001635465313809074,navigate,1.2338158459734194
8.039999999999917,2.6562906262731514,2.6562906262731514,5.003501639720076,0.8636536860450549,0.8636536860450549,-0.0023711318970872984,-0.4392105122249127,-0.4392105122249127,0.0016100688078901082,-0.4392105122249127,-0.4392105122249127,0.0016100688078901082,navigate,1.2213930575801117
8.059999999999917,2.6733873579079193,2.6733873579079193,5.003454851198375,0.8548365817383972,0.8548365817383972,-0.0023394260850188014,-0.44085521533288524,-0.44085521533288524,0.0015852906034248433,-0.44085521533288524,-0.44085521533288524,0.0015852906034248433,navigate,1.2089237510574362
8.079999999999917,2.6903072711520495,2.6903072711520495,5.003408687119745,0.84599566220652,0.84599566220652,-0.0023082039314864487,-0.4420459765938588,-0.4420459765938588,0.0015611076766176373,-0.4420459765938588,-0.4420459765938588,0.0015611076766176373,navigate,1.1964207657634023
8.099999999999916,2.7070500579810486,2.7070500579810486,5.003363138040249,0.8371393414499624,0.8371393414499624,-0.0022774539748417243,-0.44281603782788304,-0.44281603782788304,0.0015374978322362132,-0.44281603782788304,-0.44281603782788304,0.0015374978322362132,navigate,1.1838960008392465
8.119999999999916,2.7236155662488937,2.7236155662488937,5.0033181947366305,0.8282754133922474,0.8282754133922474,-0.00224716518090694,-0.4431964028857467,-0.4431964028857467,0.0015144396967392284,-0.4431964028857467,-0.4431964028857467,0.0015144396967392284,navigate,1.1713604785084508
8.139999999999915,2.7400037881216077,2.7400037881216077,5.003273848198096,0.8194110936356985,0.8194110936356985,-0.002217326926745502,-0.4432159878274462,-0.4432159878274462,0.001491912708071904,-0.4432159878274462,-0.4432159878274462,0.001491912708071904,navigate,1.1588244031281025
8.159999999999915,2.7562148492898744,2.7562148492898744,5.003230089618402,0.8105530584133375,0.8105530584133375,-0.002187928984692306,-0.4429017611180535,-0.4429017611180535,0.0014698971026597843,-0.4429017611180535,-0.4429017611180535,0.0014698971026597843,navigate,1.1462972162749383
8.179999999999914,2.7722489989083505,2.7722489989083505,5.003186910388268,0.8017074809238042,0.8017074809238042,-0.0021589615066907944,-0.44227887447666436,-0.44227887447666436,0.0014483739000755837,-0.44227887447666436,-0.44227887447666436,0.0014483739000755837,navigate,1.1337876481304474
8.199999999999914,2.7881066002128354,2.7881066002128354,5.003144302088089,0.7928800652242335,0.7928800652242335,-0.0021304150089750166,-0.44137078497853416,-0.44137078497853416,0.0014273248857888893,-0.44137078497853416,-0.44137078497853416,0.0014273248857888893,navigate,1.1213037654124238
8.219999999999914,2.80378812176973,2.80378812176973,5.003102256480946,0.784076077844711,0.784076077844711,-0.002102280357127396,-0.4401993689761262,-0.4401993689761262,0.0014067325923810175,-0.4401993689761262,-0.4401993689761262,0.0014067325923810175,navigate,1.108853016084364
8.239999999999913,2.819294129315275,2.819294129315275,5.003060765505915,0.7753003772772766,0.7753003772772766,-0.0020745487515370035,-0.43878502837171884,-0.43878502837171884,0.001386580279519634,-0.43878502837171884,-0.43878502837171884,0.001386580279519634,navigate,1.0964422710590365
8.259999999999913,2.8346252781449235,2.8346252781449235,5.00301982127165,0.7665574414824267,0.7665574414824267,-0.0020472117132769034,-0.437146789742501,-0.437146789742501,0.0013668519130049946,-0.437146789742501,-0.437146789742501,0.0013668519130049946,navigate,1.0840778630983878
8.279999999999912,2.8497823060158565,2.8497823060158565,5.002979416050241,0.757851393546651,0.757851393546651,-0.0020202610704146305,-0.43530239678878413,-0.43530239678878413,0.001347532143113651,-0.43530239678878413,-0.43530239678878413,0.001347532143113651,navigate,1.0717656230986299
8.299999999999912,2.8647660265281707,2.8647660265281707,5.002939542271346,0.7491860256157098,0.7491860256157098,-0.001993688944765339,-0.4332683965470606,-0.4332683965470606,0.0013286062824645827,-0.4332683965470606,-0.4332683965470606,0.0013286062824645827,navigate,1.0595109139368666
8.319999999999911,2.879577322952572,2.879577322952572,5.002900192516564,0.7405648212200656,0.7405648212200656,-0.0019674877390936352,-0.43106021978220876,-0.43106021978220876,0.0013100602835851743,-0.43106021978220876,-0.43106021978220876,0.0013100602835851743,navigate,1.0473186620438972
8.339999999999911,2.8942171424745946,2.8942171424745946,5.0028613595140685,0.7319909761011242,0.7319909761011242,-0.0019416501247666534,-0.42869225594707167,-0.42869225594707167,0.0012918807163490907,-0.42869225594707167,-0.42869225594707167,0.0012918807163490907,navigate,1.035193386856852
8.35999999999991,2.908686490827388,2.908686490827388,5.002823036133472,0.7234674176396642,0.7234674176396642,-0.001916169029858216,-0.42617792307300145,-0.42617792307300145,0.0012740547454218683,-0.42617792307300145,-0.42617792307300145,0.0012740547454218683,navigate,1.023139228295035
8.37999999999991,2.9229864272870087,2.9229864272870087,5.002785215380918,0.7149968229810313,0.7149968229810313,-0.001891037627702025,-0.4235297329316451,-0.4235297329316451,0.0012565701078095487,-0.4235297329316451,-0.4235297329316451,0.0012565701078095487,navigate,1.0111599723927198
8.39999999999991,2.937118060005915,2.937118060005915,5.0027478903944,0.706581635945306,0.706581635945306,-0.0018662493258887474,-0.42075935178626533,-0.42075935178626533,0.0012394150906638898,-0.42075935178626533,-0.42075935178626533,0.0012394150906638898,navigate,0.9992590752136487
8.41999999999991,2.951082541662009,2.951082541662009,5.0027110544392865,0.6982240828047027,0.6982240828047027,-0.0018417977557015231,-0.4178776570301658,-0.4178776570301658,0.0012225785093612073,-0.4178776570301658,-0.4178776570301658,0.0012225785093612073,navigate,0.9874396851635596
8.439999999999909,2.964881065402107,2.964881065402107,5.002674700904047,0.6899261870048966,0.6899261870048966,-0.0018176767619818204,-0.41489478999030677,-0.41489478999030677,0.0012060496859851364,-0.41489478999030677,-0.41489478999030677,0.0012060496859851364,navigate,0.9757046638092093
8.459999999999908,2.9785148610601424,2.9785148610601424,5.002638823296178,0.68168978290178,0.68168978290178,-0.001793880393417044,-0.4118202051558302,-0.4118202051558302,0.001189818428238815,-0.4118202051558302,-0.4118202051558302,0.001189818428238815,navigate,0.9640566053050088
8.479999999999908,2.9919851916317484,2.9919851916317484,5.002603415238314,0.6735165285802989,0.6735165285802989,-0.0017704028932401833,-0.4086627160740543,-0.4086627160740543,0.001173875008843032,-0.4086627160740543,-0.4086627160740543,0.001173875008843032,navigate,0.9524978545215299
8.499999999999908,3.005293349988098,3.005293349988098,5.002568470464507,0.665407917817493,0.665407917817493,-0.0017472386903310095,-0.4054305381402951,-0.4054305381402951,0.0011582101454586883,-0.4054305381402951,-0.4054305381402951,0.0011582101454586883,navigate,0.9410305239637362
8.519999999999907,3.018440655813051,3.018440655813051,5.002533982816693,0.6573652912476378,0.6573652912476378,-0.0017243823907076039,-0.40213132849276284,-0.40213132849276284,0.0011428149811702859,-0.40213132849276284,-0.40213132849276284,0.0011428149811702859,navigate,0.929656509560823
8.539999999999907,3.03142845274872,3.03142845274872,5.002499946241304,0.6493898467834457,0.6493898467834457,-0.001701828769396782,-0.3987722232096053,-0.3987722232096053,0.0011276810655410916,-0.3987722232096053,-0.3987722232096053,0.0011276810655410916,navigate,0.9183775054039676
8.559999999999906,3.044258105735592,3.044258105735592,5.00246635478605,0.6414826493436084,0.6414826493436084,-0.0016795727626714636,-0.39535987199186434,-0.39535987199186434,0.0011128003362659263,-0.39535987199186434,-0.39535987199186434,0.0011128003362659263,navigate,0.9071950175031027
8.579999999999906,3.0569309985342628,3.0569309985342628,5.002433202596838,0.6336446399335337,0.6336446399335337,-0.0016576094606428043,-0.3919004705037348,-0.3919004705037348,0.0010981651014329602,-0.3919004705037348,-0.3919004705037348,0.0010981651014329602,navigate,0.8961103766289726
8.599999999999905,3.0694485314167217,3.0694485314167217,5.002400483914834,0.6258766441229363,0.6258766441229363,-0.0016359341001951472,-0.38839979052987017,-0.38839979052987017,0.0010837680223828475,-0.38839979052987017,-0.38839979052987017,0.0010837680223828475,navigate,0.8851247503022145
8.619999999999905,3.081812119015941,3.081812119015941,5.002368193073669,0.6181793799609633,0.6181793799609633,-0.0016145420582509675,-0.3848632080986507,-0.3848632080986507,0.0010696020972089841,-0.3848632080986507,-0.3848632080986507,0.0010696020972089841,navigate,0.8742391539869968
8.639999999999905,3.094023188323276,3.094023188323276,5.002336324496762,0.6105534653667597,0.6105534653667597,-0.001593428845353985,-0.38129572971018094,-0.38129572971018094,0.0010556606448491204,-0.38129572971018094,-0.38129572971018094,0.0010556606448491204,navigate,0.8634544615428212
8.659999999999904,3.106083176823892,3.106083176823892,5.00230487269477,0.6029994250307927,0.6029994250307927,-0.0015725900995583147,-0.377702016798347,-0.377702016798347,0.0010419372897835137,-0.377702016798347,-0.377702016798347,0.0010419372897835137,navigate,0.8527714149844344
8.679999999999904,3.1179935307610886,3.1179935307610886,5.002273832263158,0.5955176968598449,0.5955176968598449,-0.0015520215806112667,-0.3740864085473895,-0.3740864085473895,0.0010284259473524,-0.3740864085473895,-0.3740864085473895,0.0010284259473524,navigate,0.8421906335963937
8.699999999999903,3.1297557035210155,3.1297557035210155,5.002243197879869,0.5881086379963397,0.5881086379963397,-0.0015317191644181232,-0.3704529431752604,-0.3704529431752604,0.0010151208096571764,-0.3704529431752604,-0.3704529431752604,0.0010151208096571764,navigate,0.8317126224456487
8.719999999999903,3.141371154129827,3.141371154129827,5.002212964303113,0.5807725304405735,0.5807725304405735,-0.0015116788377774347,-0.3668053777883077,-0.3668053777883077,0.0010020163320344222,-0.3668053777883077,-0.3668053777883077,0.0010020163320344222,navigate,0.8213377803325513
8.739999999999903,3.152841345855877,3.152841345855877,5.002183126369245,0.57350958630248,0.57350958630248,-0.001491896693375135,-0.3631472069046793,-0.3631472069046793,0.000989107220114983,-0.3631472069046793,-0.3631472069046793,0.000989107220114983,navigate,0.811066407217946
8.759999999999902,3.1641677449100314,3.1641677449100314,5.002153678990744,0.5663199527077365,0.5663199527077365,-0.0014723689250266273,-0.35948167973717376,-0.35948167973717376,0.0009763884174253852,-0.35948167973717376,-0.35948167973717376,0.0009763884174253852,navigate,0.8008987111614284
8.779999999999902,3.175351819237658,3.175351819237658,5.002124617154282,0.5592037163813365,0.5592037163813365,-0.001453091823155706,-0.35581181632000314,-0.35581181632000314,0.0009638550935460654,-0.35581181632000314,-0.35581181632000314,0.0009638550935460654,navigate,0.7908348148034727
8.799999999999901,3.1863950373962617,3.1863950373962617,5.002095935918872,0.5521609079301729,0.5521609079301729,-0.0014340617705003722,-0.3521404225581788,-0.3521404225581788,0.0009515026327666882,-0.3521404225581788,-0.3521404225581788,0.0009515026327666882,navigate,0.7808747614218988
8.8199999999999,3.197298867513156,3.197298867513156,5.002067630414111,0.5451915058447174,0.5451915058447174,-0.0014152752380344026,-0.3484701042727759,-0.3484701042727759,0.000939326623298483,-0.3484701042727759,-0.3484701042727759,0.000939326623298483,navigate,0.7710185205910819
8.8399999999999,3.208064776317926,3.208064776317926,5.00203969583849,0.5382954402385105,0.5382954402385105,-0.0013967287810959445,-0.34480328031034485,-0.34480328031034485,0.0009273228469229063,-0.34480328031034485,-0.34480328031034485,0.0009273228469229063,navigate,0.7612659934703715
8.8599999999999,3.2186942282447846,3.2186942282447846,5.002012127457776,0.5314725963429102,0.5314725963429102,-0.0013784190357125081,-0.34114219478001334,-0.34114219478001334,0.0009154872691718228,-0.34114219478001334,-0.34114219478001334,0.0009154872691718228,navigate,0.7516170177463959
8.8799999999999,3.2291886846002518,3.2291886846002518,5.001984920603474,0.5247228177733607,0.5247228177733607,-0.0013603427151139985,-0.3374889284774742,-0.3374889284774742,0.0009038160299254872,-0.3374889284774742,-0.3374889284774742,0.0009038160299254872,navigate,0.7420713722522475
8.899999999999899,3.2395496027918984,3.2395496027918984,5.001958070671345,0.5180459095823411,0.5180459095823411,-0.0013424966064242735,-0.3338454095509804,-0.3338454095509804,0.0008923054344862483,-0.3338454095509804,-0.3338454095509804,0.0008923054344862483,navigate,0.7326287812849892
8.919999999999899,3.249778435614161,3.249778435614161,5.001931573119995,0.5114416411131273,0.5114416411131273,-0.0013248775675230953,-0.33021342346068916,-0.33021342346068916,0.0008809519450589159,-0.33021342346068916,-0.33021342346068916,0.0008809519450589159,navigate,0.7232889186414697
8.939999999999898,3.2598766305875118,3.2598766305875118,5.0019054234695135,0.5049097486675441,0.5049097486675441,-0.0013074825240699916,-0.32659462227916025,-0.32659462227916025,0.0008697521726551798,-0.32659462227916025,-0.32659462227916025,0.0008697521726551798,navigate,0.7140514113910819
8.959999999999898,3.2698456293475116,3.2698456293475116,5.00187961730018,0.4984499379999932,0.4984499379999932,-0.0012903084666822814,-0.32299053337754563,-0.32299053337754563,0.0008587028693855103,-0.32299053337754563,-0.32299053337754563,0.0008587028693855103,navigate,0.7049158434028372
8.979999999999897,3.2796868670804957,3.2796868670804957,5.001854150251215,0.4920618866492145,0.4920618866492145,-0.001273352448259613,-0.3194025675389351,-0.3194025675389351,0.0008478009211334237,-0.3194025675389351,-0.3194025675389351,0.0008478009211334237,navigate,0.6958817586429654
8.999999999999897,3.289401772002865,3.289401772002865,5.001829018019586,0.4857452461184644,0.4857452461184644,-0.00125661158144791,-0.3158320265375053,-0.3158320265375053,0.0008370433405851492,-0.3158320265375053,-0.3158320265375053,0.0008370433405851492,navigate,0.6869486642581393
9.019999999999897,3.2989917648811464,3.2989917648811464,5.001804216358861,0.4794996439140757,0.4794996439140757,-0.0012400830362352402,-0.3122801102194375,-0.3122801102194375,0.0008264272606334823,-0.3122801102194375,-0.3122801102194375,0.0008264272606334823,navigate,0.6781160334584247
9.039999999999896,3.3084582585901803,3.3084582585901803,5.001779741078108,0.47332468545169304,0.47332468545169304,-0.0012237640376738534,-0.3087479231191318,-0.3087479231191318,0.0008159499280693341,-0.3087479231191318,-0.3087479231191318,0.0008159499280693341,navigate,0.6693833082130957
9.059999999999896,3.3178026577069573,3.3178026577069573,5.001755588040834,0.4672199558388542,0.4672199558388542,-0.0012076518637209942,-0.3052364806419439,-0.3052364806419439,0.0008056086976429608,-0.3052364806419439,-0.3052364806419439,0.0008056086976429608,navigate,0.6607499017715748
9.079999999999895,3.3270263581377972,3.3270263581377972,5.00173175316397,0.4611850215420036,0.4611850215420036,-0.0011917438431932326,-0.3017467148425283,-0.3017467148425283,0.0007954010263880843,-0.3017467148425283,-0.3017467148425283,0.0007954010263880843,navigate,0.6522152010209394
9.099999999999895,3.336130746776707,3.336130746776707,5.0017082324168936,0.4552194319454857,0.4552194319454857,-0.0011760373538279966,-0.29827947982589337,-0.29827947982589337,0.0007853244682617995,-0.29827947982589337,-0.29827947982589337,0.0007853244682617995,navigate,0.6437785686906632
9.119999999999894,3.345117201192898,3.345117201192898,5.001685021820484,0.4493227208095573,0.4493227208095573,-0.001160529820447037,-0.29483555679641804,-0.29483555679641804,0.0007753766690479834,-0.29483555679641804,-0.29483555679641804,0.0007753766690479834,navigate,0.6354393454145493
9.139999999999894,3.3539870893455777,3.3539870893455777,5.00166211744622,0.4434944076339902,0.4434944076339902,-0.0011452187132162527,-0.29141565877835757,-0.29141565877835757,0.0007655553615392144,-0.29141565877835757,-0.29141565877835757,0.0007655553615392144,navigate,0.6271968516591492
9.159999999999894,3.3627417693242454,3.3627417693242454,5.001639515415301,0.4377339989333948,0.4377339989333948,-0.0011301015459971508,-0.2880204350297688,-0.2880204350297688,0.0007558583609550924,-0.2880204350297688,-0.2880204350297688,0.0007558583609550924,navigate,0.6190503895273364
9.179999999999893,3.3713825891128453,3.3713825891128453,5.001617211897805,0.4320409894299892,0.4320409894299892,-0.0011151758747848493,-0.28465047517028036,-0.28465047517028036,0.0007462835606150738,-0.28465047517028036,-0.28465047517028036,0.0007462835606150738,navigate,0.61099924444513
9.199999999999893,3.379910886376228,3.379910886376228,5.00159520311188,0.42641486316915406,0.42641486316915406,-0.0011004392962282766,-0.2813063130417577,-0.2813063130417577,0.0007368289278286287,-0.2813063130417577,-0.2813063130417577,0.0007368289278286287,navigate,0.6030426867393232
9.219999999999892,3.3883279882674833,3.3883279882674833,5.001573485322956,0.42085509456276193,0.42085509456276193,-0.0010858894462279385,-0.2779884303196062,-0.2779884303196062,0.0007274925000169024,-0.2779884303196062,-0.2779884303196062,0.0007274925000169024,navigate,0.5951799731129669
9.239999999999892,3.396635211254782,3.396635211254782,5.001552054842984,0.4153611493649366,0.4153611493649366,-0.001071523998607407,-0.27469725989126526,-0.27469725989126526,0.0007182723810265734,-0.27469725989126526,-0.27469725989126526,0.0007182723810265734,navigate,0.5874103480252982
9.259999999999891,3.4048338609664737,3.4048338609664737,5.001530908029706,0.4099324855845905,0.4099324855845905,-0.0010573406638543404,-0.27143318901730656,-0.27143318901730656,0.000709166737653337,-0.27143318901730656,-0.27143318901730656,0.000709166737653337,navigate,0.5797330449822578
9.279999999999891,3.4129252320532495,3.4129252320532495,5.001510041285948,0.4045685543388,0.4045685543388,-0.0010433371879275252,-0.268196562289524,-0.268196562289524,0.0007001737963407547,-0.268196562289524,-0.268196562289524,0.0007001737963407547,navigate,0.5721472877433404
9.29999999999989,3.420910608066266,3.420910608066266,5.001489451058925,0.39926880065081166,0.39926880065081166,-0.0010295113511259502,-0.2649876843994179,-0.2649876843994179,0.0006912918400787454,-0.2649876843994179,-0.2649876843994179,0.0006912918400787454,navigate,0.5646522914501431
9.31999999999989,3.4287912613501903,3.4287912613501903,5.001469133839584,0.39403266419622013,0.39403266419622013,-0.0010158609670171388,-0.2618068227295758,-0.2618068227295758,0.0006825192054405679,-0.2618068227295758,-0.2618068227295758,0.0006825192054405679,navigate,0.5572472636816144
9.33999999999989,3.436568452950203,3.436568452950203,5.001449086161956,0.3888595800006281,0.3888595800006281,-0.0010023838814209938,-0.25865420977960313,-0.25865420977960313,0.000673854279807248,-0.25865420977960313,-0.25865420977960313,0.000673854279807248,navigate,0.5499314054406926
9.35999999999989,3.4442434325320406,3.4442434325320406,5.001429304602527,0.3837489790918784,0.3837489790918784,-0.0009890779714463475,-0.2555300454374866,-0.2555300454374866,0.0006652954987323144,-0.2555300454374866,-0.2555300454374866,0.0006652954987323144,navigate,0.5427039120766971
9.379999999999889,3.4518174383142357,3.4518174383142357,5.001409785779636,0.37870028910974807,0.37870028910974807,-0.0009759411445772883,-0.25243449910651555,-0.25243449910651555,0.0006568413434529618,-0.25243449910651555,-0.25243449910651555,0.0006568413434529618,navigate,0.5355639741475627
9.399999999999888,3.4592916970117518,3.4592916970117518,5.001390526352879,0.37371293487580337,0.37371293487580337,-0.0009629713378064636,-0.24936771169723448,-0.24936771169723448,0.0006484903385412331,-0.24936771169723448,-0.24936771169723448,0.0006484903385412331,navigate,0.5285107782257333
9.419999999999888,3.4666674237902706,3.4666674237902706,5.001371523022543,0.3687863389259386,0.3687863389259386,-0.0009501665168128665,-0.24632979749323874,-0.24632979749323874,0.000640241049679859,-0.24632979749323874,-0.24632979749323874,0.000640241049679859,navigate,0.5215435076512833
9.439999999999888,3.4739458222304296,3.4739458222304296,5.00135277252904,0.3639199220079575,0.3639199220079575,-0.0009375246751816354,-0.24332084589905723,-0.24332084589905723,0.0006320920815615507,-0.24332084589905723,-0.24332084589905723,0.0006320920815615507,navigate,0.5146613432356002
9.459999999999887,3.4811280843013575,3.4811280843013575,5.001334271652366,0.35911310354640164,0.35911310354640164,-0.0009250438336632127,-0.24034092307779126,-0.24034092307779126,0.0006240420759211333,-0.24034092307779126,-0.24034092307779126,0.0006240420759211333,navigate,0.5078634639187498
9.479999999999887,3.488215390342891,3.488215390342891,5.001316017211577,0.35436530207668787,0.35436530207668787,-0.0009127220394701528,-0.23739007348568952,-0.23739007348568952,0.0006160897096529988,-0.23739007348568952,-0.23739007348568952,0.0006160897096529988,navigate,0.5011490473834365
9.499999999999886,3.4952089090559006,3.4952089090559006,5.001298006064265,0.3496759356504811,0.3496759356504811,-0.0009005573656091205,-0.2344683213103376,-0.2344683213103376,0.0006082336930516143,-0.2344683213103376,-0.2344683213103376,0.0006082336930516143,navigate,0.4945172706282841
9.519999999999886,3.5021097975001827,3.5021097975001827,5.00128023510606,0.34504442221410686,0.34504442221410686,-0.0008885479102461093,-0.23157567181871194,-0.23157567181871194,0.0006004727681505612,-0.23157567181871194,-0.23157567181871194,0.0006004727681505612,navigate,0.487967310502991
9.539999999999885,3.5089192010994164,3.5089192010994164,5.0012627012701385,0.3404701799616883,0.3404701799616883,-0.000876691796103256,-0.228712112620927,-0.228712112620927,0.0005928057071426673,-0.228712112620927,-0.228712112620927,0.0005928057071426673,navigate,0.4814983442077389
9.559999999999885,3.515638253652708,3.515638253652708,5.001245401526741,0.33595262766458617,0.33595262766458617,-0.0008649871698851636,-0.22587761485510813,-0.22587761485510813,0.0005852313109046233,-0.22587761485510813,-0.22587761485510813,0.0005852313109046233,navigate,0.475109549759089
9.579999999999885,3.5222680773522805,3.5222680773522805,5.001228332882706,0.3314911849786166,0.3314911849786166,-0.00085343220173317,-0.22307213429847836,-0.22307213429847836,0.0005777484075996783,-0.22307213429847836,-0.22307213429847836,0.0005777484075996783,navigate,0.4688001064244523
9.599999999999884,3.528809782806889,3.528809782806889,5.001211492381011,0.32708527273042876,0.32708527273042876,-0.0008420250847060682,-0.2202956124093936,-0.2202956124093936,0.0005703558513550917,-0.2202956124093936,-0.2202956124093936,0.0005703558513550917,navigate,0.4625691951270871
9.619999999999884,3.5352644690705755,3.5352644690705755,5.001194877100326,0.3227343131843335,0.3227343131843335,-0.0008307640342856708,-0.21754797730476236,-0.21754797730476236,0.000563052521019872,-0.21754797730476236,-0.21754797730476236,0.000563052521019872,navigate,0.4564159988234501
9.639999999999883,3.541633223676391,3.541633223676391,5.0011784841545674,0.31843773029079386,0.31843773029079386,-0.000819647287905718,-0.2148291446769808,-0.2148291446769808,0.0005558373189976404,-0.2148291446769808,-0.2148291446769808,0.0005558373189976404,navigate,0.4503397028546132
9.659999999999883,3.5479171226747455,3.5479171226747455,5.001162310692477,0.3141949499177089,0.3141949499177089,-0.0008086731045028358,-0.21213901865424628,-0.21213901865424628,0.0005487091701441066,-0.21213901865424628,-0.21213901865424628,0.0005487091701441066,navigate,0.4443394952733475
9.679999999999882,3.5541172306760567,3.5541172306760567,5.001146353897195,0.3100054000655517,0.3100054000655517,-0.0007978397640885343,-0.209477492607859,-0.209477492607859,0.0005416670207150785,-0.209477492607859,-0.209477492607859,0.0005416670207150785,navigate,0.43841456714837235
9.699999999999882,3.5602346008974037,3.5602346008974037,5.001130610985848,0.305868511067354,0.305868511067354,-0.0007871455673404856,-0.20684444990988407,-0.20684444990988407,0.000534709837402429,-0.20684444990988407,-0.20684444990988407,0.000534709837402429,navigate,0.4325641128471759
9.719999999999882,3.566270275212893,3.566270275212893,5.0011150792091446,0.3017837157744676,0.3017837157744676,-0.0007765888352125673,-0.2042397646443202,-0.2042397646443202,0.0005278366063959152,-0.2042397646443202,-0.2042397646443202,0.0005278366063959152,navigate,0.42678733029871946
9.739999999999881,3.5722252842074727,3.5722252842074727,5.001099755850973,0.29775044972897313,0.29775044972897313,-0.0007661679085620469,-0.2016633022747243,-0.2016633022747243,0.0005210463325260239,-0.2016633022747243,-0.2016633022747243,0.0005210463325260239,navigate,0.42108342123725984
9.75999999999988,3.578100647233944,3.578100647233944,5.001084638228017,0.2937681513235525,0.2937681513235525,-0.0007558811477932486,-0.19911492027103225,-0.19911492027103225,0.0005143380384399177,-0.19911492027103225,-0.19911492027103225,0.0005143380384399177,navigate,0.41545159142844174
9.77999999999988,3.5838973724729355,3.5838973724729355,5.001069723689366,0.28983626194958934,0.28983626194958934,-0.0007457269325168244,-0.19659446869815758,-0.19659446869815758,0.0005077107638212074,-0.19659446869815758,-0.19659446869815758,0.0005077107638212074,navigate,0.4098910508787424
9.79999999999988,3.58961645699562,3.58961645699562,5.001055009616142,0.2859542261342141,0.2859542261342141,-0.0007357036612232197,-0.19410179076876202,-0.19410179076876202,0.0005011635646802366,-0.19410179076876202,-0.19410179076876202,0.0005011635646802366,navigate,0.40440101402928214
9.81999999999988,3.5952588868289594,3.5952588868289594,5.001040493421122,0.28212149166696504,0.28212149166696504,-0.0007258097509700234,-0.1916367233624527,-0.1916367233624527,0.0004946955126598182,-0.1916367233624527,-0.1916367233624527,0.0004946955126598182,navigate,0.39898069993494856
9.839999999999879,3.600825637023293,3.600825637023293,5.00102617254838,0.27833750971669513,0.27833750971669513,-0.000716043637082077,-0.1891990975134943,-0.1891990975134943,0.0004883056943973202,-0.1891990975134943,-0.1891990975134943,0.0004883056943973202,navigate,0.3936293324297275
9.859999999999879,3.6063176717220795,3.6063176717220795,5.001012044472923,0.2746017349393149,0.2746017349393149,-0.0007064037728638545,-0.18678873886901284,-0.18678873886901284,0.00048199321091112185,-0.18678873886901284,-0.18678873886901284,0.00048199321091112185,navigate,0.3883461402790735
9.879999999999878,3.611735944233618,3.611735944233618,5.000998106700337,0.27091362557692444,0.27091362557692444,-0.000696888629322986,-0.18440546811952319,-0.18440546811952319,0.0004757571770434278,-0.18440546811952319,-0.18440546811952319,0.0004757571770434278,navigate,0.38313035732010287
9.899999999999878,3.6170813971045948,3.6170813971045948,5.0009843567664385,0.26727264354885466,0.26727264354885466,-0.0006874966949047213,-0.18204910140348848,-0.18204910140348848,0.0004695967209132324,-0.18204910140348848,-0.18204910140348848,0.0004695967209132324,navigate,0.3779812225903447
9.919999999999877,3.622354962195297,3.622354962195297,5.0009707922369335,0.26367825453510396,0.26367825453510396,-0.0006782264752363865,-0.1797194506875358,-0.1797194506875358,0.00046351098341674456,-0.1797194506875358,-0.1797194506875358,0.00046351098341674456,navigate,0.3728979804457378
9.939999999999877,3.6275575607563493,3.6275575607563493,5.000957410707076,0.26012992805262763,0.26012992805262763,-0.0006690764928813789,-0.1774163241238173,-0.1774163241238173,0.0004574991177503738,-0.1774163241238173,-0.1774163241238173,0.0004574991177503738,navigate,0.367879880668519
9.959999999999877,3.6326901035068473,3.6326901035068473,5.000944209801334,0.2566271375249091,0.2566271375249091,-0.0006600452871020051,-0.17513952638592636,-0.17513952638592636,0.00045156028896869445,-0.17513952638592636,-0.17513952638592636,0.00045156028896869445,navigate,0.36292617856561166
9.979999999999876,3.6377534907137514,3.6377534907137514,5.0009311871730615,0.2531693603452153,0.2531693603452153,-0.0006511314136307777,-0.17288885898469117,-0.17288885898469117,0.0004456936735613682,-0.17288885898469117,-0.17288885898469117,0.0004456936735613682,navigate,0.3580361350580815
9.999999999999876,3.6427486122724297,3.6427486122724297,5.000918340504173,0.24975607793391394,0.24975607793391394,-0.0006423334444495846,-0.17066412056506924,-0.17066412056506924,0.00043989845905965616,-0.17066412056506924,-0.17066412056506924,0.00043989845905965616,navigate,0.35320901676219485
10.019999999999875,3.647676347788234,3.647676347788234,5.000905667504822,0.24638677579020793,0.24638677579020793,-0.0006336499675763482,-0.1684651071853003,-0.1684651071853003,0.00043417384366182323,-0.1684651071853003,-0.1684651071853003,0.00043417384366182323,navigate,0.34844409606258187
10.039999999999875,3.655994761772039,3.655994761772039,5.000893119826619,0.41592069919025987,0.41592069919025987,-0.0006273839101250092,8.476696170002596,8.476696170002596,0.00031330287256694893,8.476696170002596,8.476696170002596,0.00031330287256694893,navigate,0.5882010282551365
10.059999999999874,3.667697502505094,3.667697502505094,5.00088071068148,0.5851370366527393,0.5851370366527393,-0.0006204572569328097,8.460816873123973,8.460816873123973,0.0003463326596099772,8.460816873123973,8.460816873123973,0.0003463326596099772,navigate,0.8275089656872039
10.079999999999874,3.6827749875408182,3.6827749875408182,5.000868453207064,0.753874251786209,0.753874251786209,-0.000612873720773658,8.436860756673488,8.436860756673488,0.0003791768079575839,8.436860756673488,8.436860756673488,0.0003791768079575839,navigate,1.0661393673561774
10.099999999999874,3.7012144357241086,3.7012144357241086,5.000856360457209,0.9219724091645142,0.9219724091645142,-0.000604637492802301,8.404907868915258,8.404907868915258,0.0004118113985678476,8.404907868915258,8.404907868915258,0.0004118113985678476,navigate,1.3038660253675354
10.119999999999873,3.7229999113154957,3.7229999113154957,5.00084444539588,1.0892737795693448,1.0892737795693448,-0.0005957530664159199,8.365068520241527,8.365068520241527,0.00044422131931905456,8.365068520241527,8.365068520241527,0.00044422131931905456,navigate,1.5404658674038472
10.139999999999873,3.7481123798917273,3.7481123798917273,5.000832720895609,1.2556234288115729,1.2556234288115729,-0.0005862250135463759,8.317482462111409,8.317482462111409,0.0004764026434771973,8.317482462111409,8.317482462111409,0.0004764026434771973,navigate,1.7757197790250658
10.159999999999872,3.776379300349407,3.776379300349407,5.000821192572494,1.4133460228839978,1.4133460228839978,-0.0005764161557194666,7.8861297036212425,7.8861297036212425,0.0004904428913454712,7.8861297036212425,7.8861297036212425,0.0004904428913454712,navigate,1.998773197003505
10.179999999999872,3.8075334346088248,3.8075334346088248,5.0008098603629465,1.5577067129708775,1.5577067129708775,-0.0005666104773941425,7.21803450434399,7.21803450434399,0.0004902839162662014,7.21803450434399,7.21803450434399,0.0004902839162662014,navigate,2.2029300325513077
10.199999999999871,3.8413234919663997,3.8413234919663997,5.0007987234479065,1.6895028678787425,1.6895028678787425,-0.0005568457520195827,6.589807745393246,6.589807745393246,0.0004882362687279902,6.589807745393246,6.589807745393246,0.0004882362687279902,navigate,2.389317934310581
10.219999999999871,3.8775137161352795,3.8775137161352795,5.000787780357422,1.8095112084439908,1.8095112084439908,-0.0005471545242105829,6.000417028262419,6.000417028262419,0.00048456139044999026,6.000417028262419,6.000417028262419,0.00048456139044999026,navigate,2.5590353507419428
10.23999999999987,3.915883389513431,3.915883389513431,5.000777029066497,1.9184836689075564,1.9184836689075564,-0.0005375645462731844,5.448623023178279,5.448623023178279,0.00047949889686992595,5.448623023178279,5.448623023178279,0.00047949889686992595,navigate,2.713145677015084
10.25999999999987,3.9562262740165917,3.9562262740165917,5.00076646708232,2.017144225158049,2.017144225158049,-0.0005280992088442679,4.933027812524635,4.933027812524635,0.00047326687144582454,4.933027812524635,4.933027812524635,0.00047326687144582454,navigate,2.8526727693630947
10.27999999999987,3.9983500054891987,3.9983500054891987,5.000756091523139,2.106186573630349,2.106186573630349,-0.0005187779590528013,4.452117423615006,4.452117423615006,0.0004660624895733312,4.452117423615006,4.452117423615006,0.0004660624895733312,navigate,2.9785976624935553
10.29999999999987,4.042075456458132,4.042075456458132,5.000745899189115,2.1862725484466754,2.1862725484466754,-0.0005096167012122903,4.0042987408163135,4.0042987408163135,0.00045806289202554617,4.0042987408163135,4.0042987408163135,0.00045806289202554617,navigate,3.0918563310561864
10.319999999999869,4.08723607986926,4.08723607986926,5.000735886625587,2.2580311705564244,2.2580311705564244,-0.000500628176443922,3.587931105487452,3.587931105487452,0.0004494262384184142,3.587931105487452,3.587931105487452,0.0004494262384184142,navigate,3.1933383449044985
10.339999999999868,4.1336772444768775,4.1336772444768775,5.00072605017921,2.3220582303808497,2.3220582303808497,-0.000491822318811558,3.2013529912212517,3.2013529912212517,0.00044029288161819816,3.2013529912212517,3.2013529912212517,0.00044029288161819816,navigate,3.2838862788543817
